index,Clock 3_LSB|CAL|Ticks,Clock 3_LSB|UNCAL|Ticks,Timestamp|CAL|ms,Timestamp|UNCAL|Ticks,Accel_LN_X|CAL|m/(s^2),Accel_LN_X|UNCAL|no_units,Accel_LN_Y|CAL|m/(s^2),Accel_LN_Y|UNCAL|no_units,Accel_LN_Z|CAL|m/(s^2),Accel_LN_Z|UNCAL|no_units,Gyro_X|CAL|deg/s,Gyro_X|UNCAL|no_units,Gyro_Y|CAL|deg/s,Gyro_Y|UNCAL|no_units,Gyro_Z|CAL|deg/s,Gyro_Z|UNCAL|no_units,Mag_X|CAL|local_flux,Mag_X|UNCAL|no_units,Mag_Y|CAL|local_flux,Mag_Y|UNCAL|no_units,Mag_Z|CAL|local_flux,Mag_Z|UNCAL|no_units,Battery|CAL|mV,Battery|UNCAL|no_units,Batt_Percentage|CAL|%,Packet_Reception_Rate_Current|CAL|%,Packet_Reception_Rate_Trial|CAL|%,System_Timestamp|CAL|ms,Event_Marker|CAL|no_units,System_Timestamp_Plot|CAL|ms,System_Timestamp_Plot_Zeroed|CAL|ms
0,8213714.0,8213714.0,250662.65869140625,8213714.0,3.1956521739130435,1302.0,10.33695652173913,1959.0,0.8478260869565217,2175.0,-17.435114503816795,-582.0,8.885496183206106,1142.0,0.9770992366412213,-64.0,-0.13043478260869565,15.0,-0.022488755622188904,-87.0,0.5652173913043478,-377.0,4209.523809523809,2873.0,100.0,0.0,100.0,1.790960001979E12,-1.0,1.790960001979E12,0.0
1,8214354.0,8214354.0,250682.18994140625,8214354.0,3.1956521739130435,1302.0,10.33695652173913,1959.0,0.8478260869565217,2175.0,-17.374045801526716,-543.0,8.290076335877862,1138.0,1.0229007633587786,-67.0,-0.12893553223388304,11.0,-0.01649175412293853,-86.0,0.5742128935532234,-383.0,4209.523809523809,2873.0,100.0,0.0,100.0,1.790960001979E12,-1.0,1.7909600019985312E12,19.53125
2,8214994.0,8214994.0,250701.72119140625,8214994.0,3.1956521739130435,1300.0,10.358695652173912,1959.0,0.8478260869565217,2175.0,-17.34351145038168,-565.0,8.625954198473282,1136.0,0.9465648854961831,-62.0,-0.12893553223388304,13.0,-0.019490254872563718,-86.0,0.5742128935532234,-383.0,4209.523809523809,2873.0,100.0,0.0,100.0,1.790960001979E12,-1.0,1.7909600020180625E12,39.0625
3,8215634.0,8215634.0,250721.25244140625,8215634.0,3.1630434782608696,1301.0,10.347826086956522,1962.0,0.8260869565217391,2177.0,-17.81679389312977,-569.0,8.687022900763358,1167.0,0.916030534351145,-60.0,-0.12293853073463268,20.0,-0.029985007496251874,-82.0,0.5697151424287856,-380.0,4209.523809523809,2873.0,100.0,0.0,100.0,1.790960001979E12,-1.0,1.7909600020375938E12,58.59375
4,8216274.0,8216274.0,250740.78369140625,8216274.0,3.1739130434782608,1300.0,10.358695652173912,1961.0,0.8804347826086957,2172.0,-17.31297709923664,-554.0,8.458015267175572,1134.0,0.8396946564885496,-55.0,-0.1184407796101949,20.0,-0.029985007496251874,-79.0,0.5577211394302848,-372.0,4209.523809523809,2873.0,100.0,0.0,100.0,1.790960001979E12,-1.0,1.790960002057125E12,78.125
5,8216914.0,8216914.0,250760.31494140625,8216914.0,3.184782608695652,1301.0,10.347826086956522,1960.0,0.8804347826086957,2172.0,-17.740458015267176,-558.0,8.51908396946565,1162.0,0.48854961832061067,-32.0,-0.12893553223388304,18.0,-0.026986506746626684,-86.0,0.5742128935532234,-383.0,4209.523809523809,2873.0,100.0,0.0,100.0,1.790960001979E12,-1.0,1.7909600020766562E12,97.65625
6,8217554.0,8217554.0,250779.84619140625,8217554.0,3.184782608695652,1302.0,10.33695652173913,1960.0,0.858695652173913,2174.0,-17.801526717557252,-555.0,8.473282442748092,1166.0,0.9770992366412213,-64.0,-0.1169415292353823,16.0,-0.0239880059970015,-78.0,0.5742128935532234,-383.0,4209.523809523809,2873.0,100.0,0.0,100.0,1.790960002096E12,-1.0,1.7909600020961875E12,117.1875
7,8218194.0,8218194.0,250799.37744140625,8218194.0,3.184782608695652,1299.0,10.369565217391305,1960.0,0.858695652173913,2174.0,-17.083969465648853,-558.0,8.51908396946565,1119.0,0.8244274809160305,-54.0,-0.11094452773613193,17.0,-0.025487256371814093,-74.0,0.5847076461769115,-390.0,4209.523809523809,2873.0,100.0,0.0,100.0,1.790960002096E12,-1.0,1.7909600021157188E12,136.71875
8,8218834.0,8218834.0,250818.90869140625,8218834.0,3.184782608695652,1301.0,10.347826086956522,1960.0,0.858695652173913,2174.0,-17.587786259541986,-567.0,8.65648854961832,1152.0,0.732824427480916,-48.0,-0.14392803598200898,8.0,-0.01199400299850075,-96.0,0.5667166416791604,-378.0,4209.523809523809,2873.0,100.0,0.0,100.0,1.790960002096E12,-1.0,1.79096000213525E12,156.25
9,8219474.0,8219474.0,250838.43994140625,8219474.0,3.1630434782608696,1302.0,10.33695652173913,1962.0,0.858695652173913,2174.0,-17.61832061068702,-557.0,8.50381679389313,1154.0,0.8549618320610687,-56.0,-0.13193403298350825,13.0,-0.019490254872563718,-88.0,0.5667166416791604,-378.0,4209.523809523809,2873.0,100.0,0.0,100.0,1.790960002096E12,-1.0,1.7909600021547812E12,175.78125
10,8220114.0,8220114.0,250857.97119140625,8220114.0,3.184782608695652,1300.0,10.358695652173912,1960.0,0.858695652173913,2174.0,-17.46564885496183,-575.0,8.778625954198473,1144.0,1.0076335877862594,-66.0,-0.13043478260869565,17.0,-0.025487256371814093,-87.0,0.5622188905547226,-375.0,4209.523809523809,2873.0,100.0,0.0,100.0,1.790960002096E12,-1.0,1.7909600021743125E12,195.3125
11,8220754.0,8220754.0,250877.50244140625,8220754.0,3.2065217391304346,1301.0,10.347826086956522,1958.0,0.8478260869565217,2175.0,-17.63358778625954,-556.0,8.48854961832061,1155.0,1.129770992366412,-74.0,-0.1424287856071964,20.0,-0.029985007496251874,-95.0,0.5802098950524738,-387.0,4209.523809523809,2873.0,100.0,0.0,100.0,1.790960002096E12,-1.0,1.7909600021938438E12,214.84375
12,8221394.0,8221394.0,250897.03369140625,8221394.0,3.184782608695652,1300.0,10.358695652173912,1960.0,0.8478260869565217,2175.0,-17.679389312977097,-573.0,8.748091603053435,1158.0,1.282442748091603,-84.0,-0.13043478260869565,20.0,-0.029985007496251874,-87.0,0.5727136431784108,-382.0,4209.523809523809,2873.0,100.0,0.0,100.0,1.790960002214E12,-1.0,1.790960002213375E12,234.375
13,8222034.0,8222034.0,250916.56494140625,8222034.0,3.1739130434782608,1301.0,10.347826086956522,1961.0,0.8478260869565217,2175.0,-17.49618320610687,-562.0,8.580152671755725,1146.0,1.114503816793893,-73.0,-0.1184407796101949,12.0,-0.017991004497751123,-79.0,0.5622188905547226,-375.0,4210.989010989011,2874.0,100.0,0.0,100.0,1.790960002214E12,-1.0,1.7909600022329062E12,253.90625
14,8222674.0,8222674.0,250936.09619140625,8222674.0,3.184782608695652,1301.0,10.347826086956522,1960.0,0.8478260869565217,2175.0,-17.709923664122137,-571.0,8.717557251908397,1160.0,1.0381679389312977,-68.0,-0.13793103448275862,17.0,-0.025487256371814093,-92.0,0.5622188905547226,-375.0,4209.523809523809,2873.0,100.0,0.0,100.0,1.790960002214E12,-1.0,1.7909600022524375E12,273.4375
15,8223314.0,8223314.0,250955.62744140625,8223314.0,3.1956521739130435,1301.0,10.347826086956522,1959.0,0.8695652173913043,2173.0,-17.63358778625954,-563.0,8.595419847328245,1155.0,0.9312977099236641,-61.0,-0.11544227886056971,22.0,-0.03298350824587706,-77.0,0.5802098950524738,-387.0,4209.523809523809,2873.0,100.0,0.0,100.0,1.790960002214E12,-1.0,1.7909600022719688E12,292.96875
16,8223954.0,8223954.0,250975.15869140625,8223954.0,3.1739130434782608,1300.0,10.358695652173912,1961.0,0.858695652173913,2174.0,-17.267175572519083,-559.0,8.534351145038167,1131.0,0.5190839694656488,-34.0,-0.13193403298350825,18.0,-0.026986506746626684,-88.0,0.5787106446776612,-386.0,4209.523809523809,2873.0,100.0,0.0,100.0,1.790960002214E12,-1.0,1.7909600022915E12,312.5
17,8224594.0,8224594.0,250994.68994140625,8224594.0,3.184782608695652,1301.0,10.347826086956522,1960.0,0.8695652173913043,2173.0,-17.48091603053435,-566.0,8.6412213740458,1145.0,0.9007633587786259,-59.0,-0.136431784107946,16.0,-0.0239880059970015,-91.0,0.5742128935532234,-383.0,4210.989010989011,2874.0,100.0,0.0,100.0,1.790960002214E12,-1.0,1.7909600023110312E12,332.03125
18,8225234.0,8225234.0,251014.22119140625,8225234.0,3.1956521739130435,1301.0,10.347826086956522,1959.0,0.8695652173913043,2173.0,-17.603053435114504,-570.0,8.702290076335878,1153.0,1.0687022900763359,-70.0,-0.1409295352323838,21.0,-0.031484257871064465,-94.0,0.5667166416791604,-378.0,4209.523809523809,2873.0,100.0,0.0,100.0,1.790960002335E12,-1.0,1.7909600023305625E12,351.5625
19,8225874.0,8225874.0,251033.75244140625,8225874.0,3.184782608695652,1302.0,10.33695652173913,1960.0,0.8478260869565217,2175.0,-17.572519083969464,-568.0,8.67175572519084,1151.0,0.7175572519083969,-47.0,-0.12293853073463268,22.0,-0.03298350824587706,-82.0,0.5772113943028485,-385.0,4209.523809523809,2873.0,100.0,0.0,100.0,1.790960002335E12,-1.0,1.7909600023500938E12,371.09375
20,8226514.0,8226514.0,251053.28369140625,8226514.0,3.184782608695652,1302.0,10.33695652173913,1960.0,0.8695652173913043,2173.0,-17.46564885496183,-582.0,8.885496183206106,1144.0,1.0381679389312977,-68.0,-0.12293853073463268,17.0,-0.025487256371814093,-82.0,0.5622188905547226,-375.0,4209.523809523809,2873.0,100.0,0.0,100.0,1.790960002335E12,-1.0,1.790960002369625E12,390.625
21,8227154.0,8227154.0,251072.81494140625,8227154.0,3.1956521739130435,1298.0,10.380434782608695,1959.0,0.9021739130434783,2170.0,-17.49618320610687,-558.0,8.51908396946565,1146.0,1.0229007633587786,-67.0,-0.13193403298350825,18.0,-0.026986506746626684,-88.0,0.5817091454272864,-388.0,4210.989010989011,2874.0,100.0,0.0,100.0,1.790960002335E12,-1.0,1.7909600023891562E12,410.15625
22,8227794.0,8227794.0,251092.34619140625,8227794.0,3.1630434782608696,1301.0,10.347826086956522,1962.0,0.8804347826086957,2172.0,-17.49618320610687,-552.0,8.427480916030534,1146.0,0.8091603053435115,-53.0,-0.136431784107946,18.0,-0.026986506746626684,-91.0,0.5667166416791604,-378.0,4209.523809523809,2873.0,100.0,0.0,100.0,1.790960002335E12,-1.0,1.7909600024086875E12,429.6875
23,8228434.0,8228434.0,251111.87744140625,8228434.0,3.1739130434782608,1303.0,10.326086956521738,1961.0,0.8478260869565217,2175.0,-17.61832061068702,-556.0,8.48854961832061,1154.0,0.8549618320610687,-56.0,-0.1409295352323838,26.0,-0.038980509745127435,-94.0,0.5787106446776612,-386.0,4209.523809523809,2873.0,100.0,0.0,100.0,1.790960002335E12,-1.0,1.7909600024282188E12,449.21875
24,8229074.0,8229074.0,251131.40869140625,8229074.0,3.184782608695652,1301.0,10.347826086956522,1960.0,0.8695652173913043,2173.0,-17.526717557251906,-563.0,8.595419847328245,1148.0,0.6870229007633587,-45.0,-0.13493253373313344,25.0,-0.037481259370314844,-90.0,0.5727136431784108,-382.0,4209.523809523809,2873.0,100.0,0.0,100.0,1.790960002519E12,-1.0,1.79096000244775E12,468.75
25,8229714.0,8229714.0,251150.93994140625,8229714.0,3.1956521739130435,1302.0,10.33695652173913,1959.0,0.8478260869565217,2175.0,-17.526717557251906,-560.0,8.549618320610687,1148.0,1.0534351145038168,-69.0,-0.1184407796101949,20.0,-0.029985007496251874,-79.0,0.5727136431784108,-382.0,4209.523809523809,2873.0,100.0,0.0,100.0,1.790960002519E12,-1.0,1.7909600024672812E12,488.28125
26,8230354.0,8230354.0,251170.47119140625,8230354.0,3.1956521739130435,1300.0,10.358695652173912,1959.0,0.858695652173913,2174.0,-17.64885496183206,-577.0,8.80916030534351,1156.0,1.114503816793893,-73.0,-0.1424287856071964,15.0,-0.022488755622188904,-95.0,0.5697151424287856,-380.0,4209.523809523809,2873.0,100.0,0.0,100.0,1.790960002519E12,-1.0,1.7909600024868125E12,507.8125
27,8230994.0,8230994.0,251190.00244140625,8230994.0,3.1956521739130435,1300.0,10.358695652173912,1959.0,0.8804347826086957,2172.0,-17.267175572519083,-564.0,8.610687022900763,1131.0,0.6870229007633587,-45.0,-0.12743628185907047,12.0,-0.017991004497751123,-85.0,0.5622188905547226,-375.0,4210.989010989011,2874.0,100.0,0.0,100.0,1.790960002519E12,-1.0,1.7909600025063438E12,527.34375
28,8231634.0,8231634.0,251209.53369140625,8231634.0,3.1739130434782608,1302.0,10.33695652173913,1961.0,0.8804347826086957,2172.0,-17.603053435114504,-564.0,8.610687022900763,1153.0,1.0381679389312977,-68.0,-0.13493253373313344,17.0,-0.025487256371814093,-90.0,0.5697151424287856,-380.0,4209.523809523809,2873.0,100.0,0.0,100.0,1.790960002519E12,-1.0,1.790960002525875E12,546.875
29,8232274.0,8232274.0,251229.06494140625,8232274.0,3.1739130434782608,1302.0,10.33695652173913,1961.0,0.8804347826086957,2172.0,-17.786259541984734,-559.0,8.534351145038167,1165.0,0.8702290076335878,-57.0,-0.12443778110944527,13.0,-0.019490254872563718,-83.0,0.5712143928035982,-381.0,4209.523809523809,2873.0,100.0,0.0,100.0,1.790960002519E12,-1.0,1.7909600025454062E12,566.40625
30,8232914.0,8232914.0,251248.59619140625,8232914.0,3.1739130434782608,1300.0,10.358695652173912,1961.0,0.8478260869565217,2175.0,-17.63358778625954,-558.0,8.51908396946565,1155.0,0.916030534351145,-60.0,-0.12293853073463268,17.0,-0.025487256371814093,-82.0,0.5802098950524738,-387.0,4209.523809523809,2873.0,100.0,0.0,100.0,1.790960002637E12,-1.0,1.7909600025649375E12,585.9375
31,8233554.0,8233554.0,251268.12744140625,8233554.0,3.184782608695652,1299.0,10.369565217391305,1960.0,0.8913043478260869,2171.0,-17.679389312977097,-565.0,8.625954198473282,1158.0,1.0687022900763359,-70.0,-0.13793103448275862,17.0,-0.025487256371814093,-92.0,0.5697151424287856,-380.0,4210.989010989011,2874.0,100.0,0.0,100.0,1.790960002637E12,-1.0,1.7909600025844688E12,605.46875
32,8234194.0,8234194.0,251287.65869140625,8234194.0,3.184782608695652,1300.0,10.358695652173912,1960.0,0.8695652173913043,2173.0,-17.587786259541986,-552.0,8.427480916030534,1152.0,1.0229007633587786,-67.0,-0.1169415292353823,1.0,-0.0014992503748125937,-78.0,0.5712143928035982,-381.0,4210.989010989011,2874.0,100.0,0.0,100.0,1.790960002637E12,-1.0,1.790960002604E12,625.0
33,8234834.0,8234834.0,251307.18994140625,8234834.0,3.1739130434782608,1304.0,10.315217391304348,1961.0,0.8478260869565217,2175.0,-17.557251908396946,-561.0,8.564885496183205,1150.0,0.8091603053435115,-53.0,-0.12143928035982009,26.0,-0.038980509745127435,-81.0,0.5742128935532234,-383.0,4209.523809523809,2873.0,100.0,0.0,100.0,1.790960002637E12,-1.0,1.7909600026235312E12,644.53125
34,8235474.0,8235474.0,251326.72119140625,8235474.0,3.184782608695652,1301.0,10.347826086956522,1960.0,0.858695652173913,2174.0,-17.297709923664122,-580.0,8.854961832061068,1133.0,1.0534351145038168,-69.0,-0.12143928035982009,21.0,-0.031484257871064465,-81.0,0.56071964017991,-374.0,4209.523809523809,2873.0,100.0,0.0,100.0,1.790960002637E12,-1.0,1.7909600026430625E12,664.0625
35,8236114.0,8236114.0,251346.25244140625,8236114.0,3.2065217391304346,1300.0,10.358695652173912,1958.0,0.8478260869565217,2175.0,-17.16030534351145,-558.0,8.51908396946565,1124.0,1.083969465648855,-71.0,-0.12293853073463268,12.0,-0.017991004497751123,-82.0,0.5697151424287856,-380.0,4209.523809523809,2873.0,100.0,0.0,100.0,1.790960002637E12,-1.0,1.7909600026625938E12,683.59375
36,8236754.0,8236754.0,251365.78369140625,8236754.0,3.184782608695652,1302.0,10.33695652173913,1960.0,0.858695652173913,2174.0,-17.725190839694655,-561.0,8.564885496183205,1161.0,0.9465648854961831,-62.0,-0.13793103448275862,22.0,-0.03298350824587706,-92.0,0.5727136431784108,-382.0,4209.523809523809,2873.0,100.0,0.0,100.0,1.790960002758E12,-1.0,1.790960002682125E12,703.125
37,8237394.0,8237394.0,251385.31494140625,8237394.0,3.1956521739130435,1301.0,10.347826086956522,1959.0,0.8478260869565217,2175.0,-17.51145038167939,-577.0,8.80916030534351,1147.0,0.9465648854961831,-62.0,-0.13043478260869565,30.0,-0.04497751124437781,-87.0,0.5727136431784108,-382.0,4209.523809523809,2873.0,100.0,0.0,100.0,1.790960002758E12,-1.0,1.7909600027016562E12,722.65625
38,8238034.0,8238034.0,251404.84619140625,8238034.0,3.1956521739130435,1302.0,10.33695652173913,1959.0,0.8369565217391304,2176.0,-17.526717557251906,-565.0,8.625954198473282,1148.0,0.7786259541984732,-51.0,-0.1409295352323838,21.0,-0.031484257871064465,-94.0,0.56071964017991,-374.0,4210.989010989011,2874.0,100.0,0.0,100.0,1.790960002758E12,-1.0,1.7909600027211875E12,742.1875
39,8238674.0,8238674.0,251424.37744140625,8238674.0,3.184782608695652,1302.0,10.33695652173913,1960.0,0.8804347826086957,2172.0,-17.801526717557252,-556.0,8.48854961832061,1166.0,0.9465648854961831,-62.0,-0.13193403298350825,26.0,-0.038980509745127435,-88.0,0.5637181409295352,-376.0,4210.989010989011,2874.0,100.0,0.0,100.0,1.790960002758E12,-1.0,1.7909600027407188E12,761.71875
40,8239314.0,8239314.0,251443.90869140625,8239314.0,3.1956521739130435,1302.0,10.33695652173913,1959.0,0.858695652173913,2174.0,-17.374045801526716,-562.0,8.580152671755725,1138.0,0.9312977099236641,-61.0,-0.13193403298350825,16.0,-0.0239880059970015,-88.0,0.5787106446776612,-386.0,4210.989010989011,2874.0,100.0,0.0,100.0,1.790960002758E12,-1.0,1.79096000276025E12,781.25
41,8239954.0,8239954.0,251463.43994140625,8239954.0,3.184782608695652,1301.0,10.347826086956522,1960.0,0.858695652173913,2174.0,-17.64885496183206,-575.0,8.778625954198473,1156.0,0.9770992366412213,-64.0,-0.13193403298350825,31.0,-0.046476761619190406,-88.0,0.5742128935532234,-383.0,4210.989010989011,2874.0,100.0,0.0,100.0,1.790960002758E12,-1.0,1.7909600027797812E12,800.78125
42,8240594.0,8240594.0,251482.97119140625,8240594.0,3.1630434782608696,1300.0,10.358695652173912,1962.0,0.8695652173913043,2173.0,-17.48091603053435,-544.0,8.305343511450381,1145.0,1.0381679389312977,-68.0,-0.13493253373313344,12.0,-0.017991004497751123,-90.0,0.5847076461769115,-390.0,4209.523809523809,2873.0,100.0,0.0,100.0,1.790960002935E12,-1.0,1.7909600027993125E12,820.3125
43,8241234.0,8241234.0,251502.50244140625,8241234.0,3.184782608695652,1301.0,10.347826086956522,1960.0,0.858695652173913,2174.0,-17.709923664122137,-568.0,8.67175572519084,1160.0,0.9618320610687022,-63.0,-0.12743628185907047,25.0,-0.037481259370314844,-85.0,0.5697151424287856,-380.0,4209.523809523809,2873.0,100.0,0.0,100.0,1.790960002935E12,-1.0,1.7909600028188438E12,839.84375
44,8241874.0,8241874.0,251522.03369140625,8241874.0,3.1956521739130435,1301.0,10.347826086956522,1959.0,0.8804347826086957,2172.0,-17.603053435114504,-562.0,8.580152671755725,1153.0,0.732824427480916,-48.0,-0.12443778110944527,18.0,-0.026986506746626684,-83.0,0.5712143928035982,-381.0,4210.989010989011,2874.0,100.0,0.0,100.0,1.790960002935E12,-1.0,1.790960002838375E12,859.375
45,8242514.0,8242514.0,251541.56494140625,8242514.0,3.1956521739130435,1301.0,10.347826086956522,1959.0,0.858695652173913,2174.0,-17.389312977099237,-579.0,8.839694656488549,1139.0,0.732824427480916,-48.0,-0.13493253373313344,20.0,-0.029985007496251874,-90.0,0.5802098950524738,-387.0,4209.523809523809,2873.0,100.0,0.0,100.0,1.790960002935E12,-1.0,1.7909600028579062E12,878.90625
46,8243154.0,8243154.0,251561.09619140625,8243154.0,3.1956521739130435,1302.0,10.33695652173913,1959.0,0.8478260869565217,2175.0,-17.541984732824428,-557.0,8.50381679389313,1149.0,0.9007633587786259,-59.0,-0.136431784107946,23.0,-0.034482758620689655,-91.0,0.5817091454272864,-388.0,4210.989010989011,2874.0,100.0,0.0,100.0,1.790960002935E12,-1.0,1.7909600028774375E12,898.4375
47,8243794.0,8243794.0,251580.62744140625,8243794.0,3.184782608695652,1302.0,10.33695652173913,1960.0,0.858695652173913,2174.0,-17.725190839694655,-566.0,8.6412213740458,1161.0,0.8549618320610687,-56.0,-0.1424287856071964,15.0,-0.022488755622188904,-95.0,0.5652173913043478,-377.0,4209.523809523809,2873.0,100.0,0.0,100.0,1.790960002935E12,-1.0,1.7909600028969688E12,917.96875
48,8244434.0,8244434.0,251600.15869140625,8244434.0,3.1956521739130435,1301.0,10.347826086956522,1959.0,0.8804347826086957,2172.0,-17.51145038167939,-576.0,8.793893129770993,1147.0,0.9618320610687022,-63.0,-0.13043478260869565,25.0,-0.037481259370314844,-87.0,0.5652173913043478,-377.0,4209.523809523809,2873.0,100.0,0.0,100.0,1.790960003058E12,-1.0,1.7909600029165E12,937.5
49,8245074.0,8245074.0,251619.68994140625,8245074.0,3.184782608695652,1300.0,10.358695652173912,1960.0,0.858695652173913,2174.0,-17.572519083969464,-589.0,8.99236641221374,1151.0,1.099236641221374,-72.0,-0.1454272863568216,15.0,-0.022488755622188904,-97.0,0.5697151424287856,-380.0,4209.523809523809,2873.0,100.0,0.0,100.0,1.790960003058E12,-1.0,1.7909600029360312E12,957.03125
50,8245714.0,8245714.0,251639.22119140625,8245714.0,3.1739130434782608,1301.0,10.347826086956522,1961.0,0.858695652173913,2174.0,-17.541984732824428,-571.0,8.717557251908397,1149.0,0.8091603053435115,-53.0,-0.12743628185907047,15.0,-0.022488755622188904,-85.0,0.5772113943028485,-385.0,4209.523809523809,2873.0,100.0,0.0,100.0,1.790960003058E12,-1.0,1.7909600029555625E12,976.5625
51,8246354.0,8246354.0,251658.75244140625,8246354.0,3.1739130434782608,1302.0,10.33695652173913,1961.0,0.8913043478260869,2171.0,-0.09100434066756527,-582.0,0.2676246070947459,1155.0,-0.021553659631791677,-59.0,-0.12143928035982009,21.0,-0.031484257871064465,-81.0,0.5712143928035982,-381.0,4209.523809523809,2873.0,100.0,0.0,100.0,1.790960003058E12,-1.0,1.7909600029750938E12,996.09375
52,8246994.0,8246994.0,251678.28369140625,8246994.0,3.1739130434782608,1301.0,10.347826086956522,1961.0,0.8695652173913043,2173.0,0.04640023948510647,-560.0,-0.06825325550067396,1146.0,-0.15895823978446344,-50.0,-0.136431784107946,16.0,-0.0239880059970015,-91.0,0.5562218890554722,-371.0,4209.523809523809,2873.0,100.0,0.0,100.0,1.790960003058E12,-1.0,1.790960002994625E12,1015.625
53,8247634.0,8247634.0,251697.81494140625,8247634.0,3.1739130434782608,1302.0,10.33695652173913,1961.0,0.858695652173913,2174.0,0.03113306391258739,-561.0,-0.05298607992815487,1147.0,0.008980691513246488,-61.0,-0.12443778110944527,21.0,-0.031484257871064465,-83.0,0.5712143928035982,-381.0,4209.523809523809,2873.0,100.0,0.0,100.0,1.790960003058E12,-1.0,1.7909600030141562E12,1035.15625
54,8248274.0,8248274.0,251717.34619140625,8248274.0,3.1739130434782608,1302.0,10.33695652173913,1961.0,0.858695652173913,2174.0,0.2906750486454118,-563.0,-0.022451728783116708,1130.0,-0.06735518634934892,-56.0,-0.12293853073463268,17.0,-0.025487256371814093,-82.0,0.5652173913043478,-377.0,4209.523809523809,2873.0,100.0,0.0,100.0,1.790960003177E12,-1.0,1.7909600030336875E12,1054.6875
55,8248914.0,8248914.0,251736.87744140625,8248914.0,3.2065217391304346,1299.0,10.369565217391305,1958.0,0.8804347826086957,2172.0,-0.1673402185301607,-586.0,0.3286933093848222,1160.0,-0.1894925909295016,-48.0,-0.12743628185907047,27.0,-0.04047976011994003,-85.0,0.5622188905547226,-375.0,4209.523809523809,2873.0,100.0,0.0,100.0,1.790960003177E12,-1.0,1.7909600030532188E12,1074.21875
56,8249554.0,8249554.0,251756.40869140625,8249554.0,3.2065217391304346,1301.0,10.347826086956522,1958.0,0.8478260869565217,2175.0,0.06166741505762556,-562.0,-0.03771890435563579,1145.0,-0.12842388863942525,-52.0,-0.13043478260869565,22.0,-0.03298350824587706,-87.0,0.5772113943028485,-385.0,4209.523809523809,2873.0,100.0,0.0,100.0,1.790960003177E12,-1.0,1.79096000307275E12,1093.75
57,8250194.0,8250194.0,251775.93994140625,8250194.0,3.1739130434782608,1304.0,10.315217391304348,1961.0,0.8478260869565217,2175.0,0.12273611734770189,-562.0,-0.03771890435563579,1141.0,-0.08262236192186802,-55.0,-0.13193403298350825,21.0,-0.031484257871064465,-88.0,0.5637181409295352,-376.0,4209.523809523809,2873.0,100.0,0.0,100.0,1.790960003177E12,-1.0,1.7909600030922812E12,1113.28125
58,8250834.0,8250834.0,251795.47119140625,8250834.0,3.1956521739130435,1301.0,10.347826086956522,1959.0,0.8695652173913043,2173.0,0.09220176620266372,-590.0,0.38976201167489855,1143.0,-0.23529411764705885,-45.0,-0.1424287856071964,25.0,-0.037481259370314844,-95.0,0.5727136431784108,-382.0,4209.523809523809,2873.0,100.0,0.0,100.0,1.790960003177E12,-1.0,1.7909600031118125E12,1132.8125
59,8251474.0,8251474.0,251815.00244140625,8251474.0,3.1956521739130435,1300.0,10.358695652173912,1959.0,0.8695652173913043,2173.0,-0.029935638377488943,-580.0,0.2370902559497077,1151.0,-0.12842388863942525,-52.0,-0.13193403298350825,18.0,-0.026986506746626684,-88.0,0.5817091454272864,-388.0,4209.523809523809,2873.0,100.0,0.0,100.0,1.790960003177E12,-1.0,1.7909600031313438E12,1152.34375
60,8252114.0,8252114.0,251834.53369140625,8252114.0,3.1739130434782608,1302.0,10.33695652173913,1961.0,0.8804347826086957,2172.0,-0.09100434066756527,-565.0,0.00808262236192146,1155.0,0.05478221823080374,-64.0,-0.13043478260869565,17.0,-0.025487256371814093,-87.0,0.5697151424287856,-380.0,4209.523809523809,2873.0,100.0,0.0,100.0,1.790960003298E12,-1.0,1.790960003150875E12,1171.875
61,8252754.0,8252754.0,251854.06494140625,8252754.0,3.2065217391304346,1303.0,10.326086956521738,1958.0,0.8478260869565217,2175.0,-0.10627151624008437,-572.0,0.11495285136955505,1156.0,-0.08262236192186802,-55.0,-0.12893553223388304,18.0,-0.026986506746626684,-86.0,0.5817091454272864,-388.0,4209.523809523809,2873.0,100.0,0.0,100.0,1.790960003298E12,-1.0,1.7909600031704062E12,1191.40625
62,8253394.0,8253394.0,251873.59619140625,8253394.0,3.1956521739130435,1301.0,10.347826086956522,1959.0,0.8804347826086957,2172.0,-0.045202813950008025,-564.0,-0.007184553210597624,1152.0,0.08531656937584191,-66.0,-0.12443778110944527,13.0,-0.019490254872563718,-83.0,0.5742128935532234,-383.0,4209.523809523809,2873.0,100.0,0.0,100.0,1.790960003298E12,-1.0,1.7909600031899375E12,1210.9375
63,8254034.0,8254034.0,251893.12744140625,8254034.0,3.1956521739130435,1301.0,10.347826086956522,1959.0,0.858695652173913,2174.0,0.04640023948510647,-562.0,-0.03771890435563579,1146.0,0.14638527166591825,-70.0,-0.14392803598200898,26.0,-0.038980509745127435,-96.0,0.5787106446776612,-386.0,4209.523809523809,2873.0,100.0,0.0,100.0,1.790960003298E12,-1.0,1.7909600032094688E12,1230.46875
64,8254674.0,8254674.0,251912.65869140625,8254674.0,3.1956521739130435,1301.0,10.347826086956522,1959.0,0.8804347826086957,2172.0,0.1074689417751828,-571.0,0.09968567579703597,1142.0,-0.11315671306690618,-53.0,-0.13193403298350825,11.0,-0.01649175412293853,-88.0,0.5637181409295352,-376.0,4209.523809523809,2873.0,100.0,0.0,100.0,1.790960003298E12,-1.0,1.790960003229E12,1250.0
65,8255314.0,8255314.0,251932.18994140625,8255314.0,3.1956521739130435,1302.0,10.33695652173913,1959.0,0.8804347826086957,2172.0,0.03113306391258739,-563.0,-0.022451728783116708,1147.0,0.25325550067355185,-77.0,-0.12743628185907047,25.0,-0.037481259370314844,-85.0,0.5697151424287856,-380.0,4209.523809523809,2873.0,100.0,0.0,100.0,1.790960003298E12,-1.0,1.7909600032485312E12,1269.53125
66,8255954.0,8255954.0,251951.72119140625,8255954.0,3.184782608695652,1301.0,10.347826086956522,1960.0,0.8695652173913043,2173.0,-0.2742104475377943,-566.0,0.023349797934440544,1167.0,-0.08262236192186802,-55.0,-0.13493253373313344,20.0,-0.029985007496251874,-90.0,0.5652173913043478,-377.0,4209.523809523809,2873.0,100.0,0.0,100.0,1.790960003419E12,-1.0,1.7909600032680625E12,1289.0625
67,8256594.0,8256594.0,251971.25244140625,8256594.0,3.184782608695652,1302.0,10.33695652173913,1960.0,0.858695652173913,2174.0,0.03113306391258739,-541.0,-0.35832959137853654,1147.0,0.23798832510103274,-76.0,-0.13493253373313344,17.0,-0.025487256371814093,-90.0,0.5652173913043478,-377.0,4210.989010989011,2874.0,100.0,0.0,100.0,1.790960003419E12,-1.0,1.7909600032875938E12,1308.59375
68,8257234.0,8257234.0,251990.78369140625,8257234.0,3.1956521739130435,1301.0,10.347826086956522,1959.0,0.8913043478260869,2171.0,-0.2742104475377943,-568.0,0.05388414907947871,1167.0,-0.05208801077682985,-57.0,-0.12293853073463268,17.0,-0.025487256371814093,-82.0,0.5652173913043478,-377.0,4209.523809523809,2873.0,100.0,0.0,100.0,1.790960003419E12,-1.0,1.790960003307125E12,1328.125
69,8257874.0,8257874.0,252010.31494140625,8257874.0,3.1739130434782608,1301.0,10.347826086956522,1961.0,0.8478260869565217,2175.0,-0.01466846280496986,-562.0,-0.03771890435563579,1150.0,0.11585092052088007,-68.0,-0.12443778110944527,13.0,-0.019490254872563718,-83.0,0.5817091454272864,-388.0,4209.523809523809,2873.0,100.0,0.0,100.0,1.790960003419E12,-1.0,1.7909600033266562E12,1347.65625
70,8258514.0,8258514.0,252029.84619140625,8258514.0,3.184782608695652,1302.0,10.33695652173913,1960.0,0.8478260869565217,2175.0,-0.01466846280496986,-560.0,-0.06825325550067396,1150.0,-0.26582846879209704,-43.0,-0.12293853073463268,10.0,-0.014992503748125937,-82.0,0.5847076461769115,-390.0,4209.523809523809,2873.0,100.0,0.0,100.0,1.790960003419E12,-1.0,1.7909600033461875E12,1367.1875
71,8259154.0,8259154.0,252049.37744140625,8259154.0,3.152173913043478,1302.0,10.33695652173913,1963.0,0.8804347826086957,2172.0,0.22960634635533547,-566.0,0.023349797934440544,1134.0,-0.15895823978446344,-50.0,-0.14392803598200898,16.0,-0.0239880059970015,-96.0,0.56071964017991,-374.0,4209.523809523809,2873.0,100.0,0.0,100.0,1.790960003419E12,-1.0,1.7909600033657188E12,1386.71875
72,8259794.0,8259794.0,252068.90869140625,8259794.0,3.1956521739130435,1301.0,10.347826086956522,1959.0,0.8804347826086957,2172.0,-0.01466846280496986,-557.0,-0.1140547822182312,1150.0,0.16165244723843733,-71.0,-0.13493253373313344,15.0,-0.022488755622188904,-90.0,0.5772113943028485,-385.0,4210.989010989011,2874.0,100.0,0.0,100.0,1.790960003531E12,-1.0,1.79096000338525E12,1406.25
73,8260434.0,8260434.0,252088.43994140625,8260434.0,3.184782608695652,1302.0,10.33695652173913,1960.0,0.8478260869565217,2175.0,-0.06046998952252711,-563.0,-0.022451728783116708,1153.0,-0.20475976650202068,-47.0,-0.13193403298350825,16.0,-0.0239880059970015,-88.0,0.5742128935532234,-383.0,4208.058608058608,2872.0,100.0,0.0,100.0,1.790960003531E12,-1.0,1.7909600034047812E12,1425.78125
74,8261074.0,8261074.0,252107.97119140625,8261074.0,3.1630434782608696,1302.0,10.33695652173913,1962.0,0.8478260869565217,2175.0,5.987127675492234E-4,-568.0,0.05388414907947871,1149.0,-0.08262236192186802,-55.0,-0.13493253373313344,17.0,-0.025487256371814093,-90.0,0.5727136431784108,-382.0,4210.989010989011,2874.0,100.0,0.0,100.0,1.790960003531E12,-1.0,1.7909600034243125E12,1445.3125
75,8261714.0,8261714.0,252127.50244140625,8261714.0,3.1739130434782608,1302.0,10.33695652173913,1961.0,0.8695652173913043,2173.0,0.15327046849274006,-580.0,0.2370902559497077,1139.0,-0.08262236192186802,-55.0,-0.13493253373313344,27.0,-0.04047976011994003,-90.0,0.5772113943028485,-385.0,4210.989010989011,2874.0,100.0,0.0,100.0,1.790960003531E12,-1.0,1.7909600034438438E12,1464.84375
76,8262354.0,8262354.0,252147.03369140625,8262354.0,3.184782608695652,1300.0,10.358695652173912,1960.0,0.8695652173913043,2173.0,0.22960634635533547,-568.0,0.05388414907947871,1134.0,0.02424786708576557,-62.0,-0.12293853073463268,25.0,-0.037481259370314844,-82.0,0.5877061469265367,-392.0,4209.523809523809,2873.0,100.0,0.0,100.0,1.790960003531E12,-1.0,1.790960003463375E12,1484.375
77,8262994.0,8262994.0,252166.56494140625,8262994.0,3.1630434782608696,1301.0,10.347826086956522,1962.0,0.8695652173913043,2173.0,-0.01466846280496986,-575.0,0.1607543780871123,1150.0,-0.05208801077682985,-57.0,-0.14842578710644677,6.0,-0.008995502248875561,-99.0,0.5817091454272864,-388.0,4210.989010989011,2874.0,100.0,0.0,100.0,1.790960003531E12,-1.0,1.7909600034829062E12,1503.90625
78,8263634.0,8263634.0,252186.09619140625,8263634.0,3.184782608695652,1300.0,10.358695652173912,1960.0,0.858695652173913,2174.0,-0.13680586738512251,-557.0,-0.1140547822182312,1158.0,-0.03682083520431076,-58.0,-0.13493253373313344,17.0,-0.025487256371814093,-90.0,0.5697151424287856,-380.0,4209.523809523809,2873.0,100.0,0.0,100.0,1.790960003659E12,-1.0,1.7909600035024375E12,1523.4375
79,8264274.0,8264274.0,252205.62744140625,8264274.0,3.184782608695652,1301.0,10.347826086956522,1960.0,0.858695652173913,2174.0,0.1990719952102973,-558.0,-0.09878760664571212,1136.0,0.25325550067355185,-77.0,-0.12143928035982009,16.0,-0.0239880059970015,-81.0,0.5742128935532234,-383.0,4209.523809523809,2873.0,100.0,0.0,100.0,1.790960003659E12,-1.0,1.7909600035219688E12,1542.96875
80,8264914.0,8264914.0,252225.15869140625,8264914.0,3.184782608695652,1301.0,10.347826086956522,1960.0,0.8478260869565217,2175.0,0.1074689417751828,-566.0,0.023349797934440544,1142.0,0.10058374494836099,-67.0,-0.12143928035982009,18.0,-0.026986506746626684,-81.0,0.5667166416791604,-378.0,4209.523809523809,2873.0,100.0,0.0,100.0,1.790960003659E12,-1.0,1.7909600035415E12,1562.5
81,8265554.0,8265554.0,252244.68994140625,8265554.0,3.184782608695652,1302.0,10.33695652173913,1960.0,0.8695652173913043,2173.0,0.07693459063014464,-566.0,0.023349797934440544,1144.0,-0.12842388863942525,-52.0,-0.13493253373313344,12.0,-0.017991004497751123,-90.0,0.5652173913043478,-377.0,4209.523809523809,2873.0,100.0,0.0,100.0,1.790960003659E12,-1.0,1.7909600035610312E12,1582.03125
82,8266194.0,8266194.0,252264.22119140625,8266194.0,3.1739130434782608,1300.0,10.358695652173912,1961.0,0.858695652173913,2174.0,0.06166741505762556,-570.0,0.08441850022451687,1145.0,-0.006286484059272596,-60.0,-0.11394302848575712,23.0,-0.034482758620689655,-76.0,0.5742128935532234,-383.0,4209.523809523809,2873.0,100.0,0.0,100.0,1.790960003659E12,-1.0,1.7909600035805625E12,1601.5625
83,8266834.0,8266834.0,252283.75244140625,8266834.0,3.1739130434782608,1299.0,10.369565217391305,1961.0,0.8695652173913043,2173.0,0.18380481963777823,-567.0,0.038616973506959626,1137.0,-0.0978895374943871,-54.0,-0.12893553223388304,18.0,-0.026986506746626684,-86.0,0.56071964017991,-374.0,4209.523809523809,2873.0,100.0,0.0,100.0,1.790960003659E12,-1.0,1.7909600036000938E12,1621.09375
84,8267474.0,8267474.0,252303.28369140625,8267474.0,3.1630434782608696,1301.0,10.347826086956522,1962.0,0.8804347826086957,2172.0,0.16853764406525915,-564.0,-0.007184553210597624,1138.0,-0.05208801077682985,-57.0,-0.12443778110944527,13.0,-0.019490254872563718,-83.0,0.5667166416791604,-378.0,4209.523809523809,2873.0,100.0,0.0,100.0,1.790960003777E12,-1.0,1.790960003619625E12,1640.625
85,8268114.0,8268114.0,252322.81494140625,8268114.0,3.184782608695652,1302.0,10.33695652173913,1960.0,0.8369565217391304,2176.0,-0.01466846280496986,-568.0,0.05388414907947871,1150.0,-0.06735518634934892,-56.0,-0.13493253373313344,20.0,-0.029985007496251874,-90.0,0.5622188905547226,-375.0,4209.523809523809,2873.0,100.0,0.0,100.0,1.790960003777E12,-1.0,1.7909600036391562E12,1660.15625
86,8268754.0,8268754.0,252342.34619140625,8268754.0,3.184782608695652,1301.0,10.347826086956522,1960.0,0.8804347826086957,2172.0,-0.07573716509504619,-557.0,-0.1140547822182312,1154.0,0.08531656937584191,-66.0,-0.13793103448275862,15.0,-0.022488755622188904,-92.0,0.5622188905547226,-375.0,4209.523809523809,2873.0,100.0,0.0,100.0,1.790960003777E12,-1.0,1.7909600036586875E12,1679.6875
87,8269394.0,8269394.0,252361.87744140625,8269394.0,3.2065217391304346,1301.0,10.347826086956522,1958.0,0.8695652173913043,2173.0,-0.07573716509504619,-578.0,0.20655590480466954,1154.0,-0.006286484059272596,-60.0,-0.1454272863568216,12.0,-0.017991004497751123,-97.0,0.5577211394302848,-372.0,4210.989010989011,2874.0,100.0,0.0,100.0,1.790960003777E12,-1.0,1.7909600036782188E12,1699.21875
88,8270034.0,8270034.0,252381.40869140625,8270034.0,3.1739130434782608,1300.0,10.358695652173912,1961.0,0.858695652173913,2174.0,0.01586588834006831,-575.0,0.1607543780871123,1148.0,0.008980691513246488,-61.0,-0.1184407796101949,22.0,-0.03298350824587706,-79.0,0.5847076461769115,-390.0,4209.523809523809,2873.0,100.0,0.0,100.0,1.790960003777E12,-1.0,1.79096000369775E12,1718.75
89,8270674.0,8270674.0,252400.93994140625,8270674.0,3.1739130434782608,1301.0,10.347826086956522,1961.0,0.8369565217391304,2176.0,-0.07573716509504619,-567.0,0.038616973506959626,1154.0,-0.006286484059272596,-60.0,-0.14392803598200898,21.0,-0.031484257871064465,-96.0,0.5712143928035982,-381.0,4209.523809523809,2873.0,100.0,0.0,100.0,1.790960003777E12,-1.0,1.7909600037172812E12,1738.28125
90,8271314.0,8271314.0,252420.47119140625,8271314.0,3.184782608695652,1302.0,10.33695652173913,1960.0,0.8478260869565217,2175.0,0.01586588834006831,-550.0,-0.2209250112258648,1148.0,0.20745397395599458,-74.0,-0.13493253373313344,10.0,-0.014992503748125937,-90.0,0.5622188905547226,-375.0,4209.523809523809,2873.0,100.0,0.0,100.0,1.790960003899E12,-1.0,1.7909600037368125E12,1757.8125
91,8271954.0,8271954.0,252440.00244140625,8271954.0,3.184782608695652,1300.0,10.358695652173912,1960.0,0.858695652173913,2174.0,-0.09100434066756527,-559.0,-0.08352043107319304,1155.0,0.10058374494836099,-67.0,-0.13043478260869565,20.0,-0.029985007496251874,-87.0,0.5622188905547226,-375.0,4209.523809523809,2873.0,100.0,0.0,100.0,1.790960003899E12,-1.0,1.7909600037563438E12,1777.34375
92,8272594.0,8272594.0,252459.53369140625,8272594.0,3.184782608695652,1301.0,10.347826086956522,1960.0,0.8369565217391304,2176.0,-0.25894327196527517,-556.0,-0.12932195779075029,1166.0,0.16165244723843733,-71.0,-0.13043478260869565,17.0,-0.025487256371814093,-87.0,0.5727136431784108,-382.0,4209.523809523809,2873.0,100.0,0.0,100.0,1.790960003899E12,-1.0,1.790960003775875E12,1796.875
93,8273234.0,8273234.0,252479.06494140625,8273234.0,3.1739130434782608,1300.0,10.358695652173912,1961.0,0.858695652173913,2174.0,0.24487352192785455,-561.0,-0.05298607992815487,1133.0,0.11585092052088007,-68.0,-0.12293853073463268,25.0,-0.037481259370314844,-82.0,0.5802098950524738,-387.0,4209.523809523809,2873.0,100.0,0.0,100.0,1.790960003899E12,-1.0,1.7909600037954062E12,1816.40625
94,8273874.0,8273874.0,252498.59619140625,8273874.0,3.184782608695652,1302.0,10.33695652173913,1960.0,0.8804347826086957,2172.0,-0.3810806765454279,-578.0,0.20655590480466954,1174.0,-0.17422541535698252,-49.0,-0.13193403298350825,21.0,-0.031484257871064465,-88.0,0.5667166416791604,-378.0,4210.989010989011,2874.0,100.0,0.0,100.0,1.790960003899E12,-1.0,1.7909600038149375E12,1835.9375
95,8274514.0,8274514.0,252518.12744140625,8274514.0,3.1956521739130435,1301.0,10.347826086956522,1959.0,0.8478260869565217,2175.0,-0.10627151624008437,-558.0,-0.09878760664571212,1156.0,0.07004939380332283,-65.0,-0.13193403298350825,13.0,-0.019490254872563718,-88.0,0.5562218890554722,-371.0,4210.989010989011,2874.0,100.0,0.0,100.0,1.790960003899E12,-1.0,1.7909600038344688E12,1855.46875
96,8275154.0,8275154.0,252537.65869140625,8275154.0,3.1956521739130435,1301.0,10.347826086956522,1959.0,0.858695652173913,2174.0,0.22960634635533547,-579.0,0.22182308037718862,1134.0,0.10058374494836099,-67.0,-0.12743628185907047,22.0,-0.03298350824587706,-85.0,0.5847076461769115,-390.0,4210.989010989011,2874.0,100.0,0.0,100.0,1.790960004016E12,-1.0,1.790960003854E12,1875.0
97,8275794.0,8275794.0,252557.18994140625,8275794.0,3.1956521739130435,1301.0,10.347826086956522,1959.0,0.8913043478260869,2171.0,0.06166741505762556,-570.0,0.08441850022451687,1145.0,0.25325550067355185,-77.0,-0.13193403298350825,23.0,-0.034482758620689655,-88.0,0.5667166416791604,-378.0,4209.523809523809,2873.0,100.0,0.0,100.0,1.790960004016E12,-1.0,1.7909600038735312E12,1894.53125
98,8276434.0,8276434.0,252576.72119140625,8276434.0,3.1739130434782608,1301.0,10.347826086956522,1961.0,0.8695652173913043,2173.0,-0.10627151624008437,-579.0,0.22182308037718862,1156.0,-0.021553659631791677,-59.0,-0.13193403298350825,28.0,-0.041979010494752625,-88.0,0.5667166416791604,-378.0,4209.523809523809,2873.0,100.0,0.0,100.0,1.790960004016E12,-1.0,1.7909600038930625E12,1914.0625
99,8277074.0,8277074.0,252596.25244140625,8277074.0,3.184782608695652,1303.0,10.326086956521738,1960.0,0.8695652173913043,2173.0,0.09220176620266372,-574.0,0.1454872025145932,1143.0,0.13111809609339917,-69.0,-0.12743628185907047,20.0,-0.029985007496251874,-85.0,0.5772113943028485,-385.0,4209.523809523809,2873.0,100.0,0.0,100.0,1.790960004016E12,-1.0,1.7909600039125938E12,1933.59375
100,8277714.0,8277714.0,252615.78369140625,8277714.0,3.1630434782608696,1300.0,10.358695652173912,1962.0,0.858695652173913,2174.0,-0.029935638377488943,-582.0,0.2676246070947459,1151.0,-0.14369106421194436,-51.0,-0.12293853073463268,15.0,-0.022488755622188904,-82.0,0.5802098950524738,-387.0,4209.523809523809,2873.0,100.0,0.0,100.0,1.790960004016E12,-1.0,1.790960003932125E12,1953.125
101,8278354.0,8278354.0,252635.31494140625,8278354.0,3.1630434782608696,1300.0,10.358695652173912,1962.0,0.8478260869565217,2175.0,-0.07573716509504619,-553.0,-0.17512348450830753,1154.0,-0.06735518634934892,-56.0,-0.136431784107946,23.0,-0.034482758620689655,-91.0,0.5742128935532234,-383.0,4209.523809523809,2873.0,100.0,0.0,100.0,1.790960004016E12,-1.0,1.7909600039516562E12,1972.65625
102,8278994.0,8278994.0,252654.84619140625,8278994.0,3.1739130434782608,1302.0,10.33695652173913,1961.0,0.8804347826086957,2172.0,0.23888639425235886,-564.0,-0.043406675647358624,1133.0,-0.07633587786259542,-55.0,-0.1424287856071964,12.0,-0.017991004497751123,-95.0,0.5652173913043478,-377.0,4209.523809523809,2873.0,100.0,0.0,100.0,1.790960004196E12,-1.0,1.7909600039711875E12,1992.1875
103,8279634.0,8279634.0,252674.37744140625,8279634.0,3.1739130434782608,1300.0,10.358695652173912,1961.0,0.9021739130434783,2170.0,-0.14937883550366662,-568.0,0.02305044155066593,1158.0,-0.07513845232749589,-55.0,-0.14392803598200898,18.0,-0.026986506746626684,-96.0,0.5787106446776612,-386.0,4209.523809523809,2873.0,100.0,0.0,100.0,1.790960004196E12,-1.0,1.7909600039907188E12,2011.71875
104,8280274.0,8280274.0,252693.90869140625,8280274.0,3.184782608695652,1302.0,10.33695652173913,1960.0,0.858695652173913,2174.0,0.022152372399342094,-547.0,-0.29995509654243346,1147.0,-0.06136805867385127,-56.0,-0.12893553223388304,23.0,-0.034482758620689655,-86.0,0.5862068965517241,-391.0,4209.523809523809,2873.0,100.0,0.0,100.0,1.790960004196E12,-1.0,1.79096000401025E12,2031.25
105,8280914.0,8280914.0,252713.43994140625,8280914.0,3.1956521739130435,1301.0,10.347826086956522,1959.0,0.858695652173913,2174.0,-0.09998503218081058,-553.0,-0.2041610537344709,1155.0,-0.22781020805268673,-45.0,-0.12743628185907047,15.0,-0.022488755622188904,-85.0,0.5697151424287856,-380.0,4210.989010989011,2874.0,100.0,0.0,100.0,1.790960004196E12,-1.0,1.7909600040297812E12,2050.78125
106,8281554.0,8281554.0,252732.97119140625,8281554.0,3.184782608695652,1299.0,10.369565217391305,1960.0,0.8695652173913043,2173.0,0.13650651100134792,-571.0,0.07364167040862217,1140.0,-0.1939829366861248,-47.0,-0.12893553223388304,18.0,-0.026986506746626684,-86.0,0.5742128935532234,-383.0,4210.989010989011,2874.0,100.0,0.0,100.0,1.790960004196E12,-1.0,1.7909600040493125E12,2070.3125
107,8282194.0,8282194.0,252752.50244140625,8282194.0,3.1739130434782608,1301.0,10.347826086956522,1961.0,0.858695652173913,2174.0,-0.08322107468941843,-558.0,-0.12034126627750326,1154.0,-0.04101182457715912,-57.0,-0.136431784107946,16.0,-0.0239880059970015,-91.0,0.5742128935532234,-383.0,4209.523809523809,2873.0,100.0,0.0,100.0,1.790960004196E12,-1.0,1.7909600040688438E12,2089.84375
108,8282834.0,8282834.0,252772.03369140625,8282834.0,3.1630434782608696,1302.0,10.33695652173913,1962.0,0.858695652173913,2174.0,0.08741206406226647,-564.0,-0.027540787307288577,1143.0,0.0032929202215237663,-60.0,-0.12443778110944527,18.0,-0.026986506746626684,-83.0,0.5712143928035982,-381.0,4209.523809523809,2873.0,100.0,0.0,100.0,1.79096000431E12,-1.0,1.790960004088375E12,2109.375
109,8283474.0,8283474.0,252791.56494140625,8283474.0,3.2065217391304346,1302.0,10.33695652173913,1958.0,0.858695652173913,2174.0,0.2559497081275256,-567.0,0.017662026642717713,1132.0,0.21553659631791647,-74.0,-0.136431784107946,16.0,-0.0239880059970015,-91.0,0.5742128935532234,-383.0,4210.989010989011,2874.0,100.0,0.0,100.0,1.79096000431E12,-1.0,1.7909600041079062E12,2128.90625
110,8284114.0,8284114.0,252811.09619140625,8284114.0,3.1956521739130435,1300.0,10.358695652173912,1959.0,0.8695652173913043,2173.0,-0.1290226014069757,-584.0,0.28408920820236516,1157.0,-0.11375542583445594,-53.0,-0.13043478260869565,12.0,-0.017991004497751123,-87.0,0.5847076461769115,-390.0,4209.523809523809,2873.0,100.0,0.0,100.0,1.79096000431E12,-1.0,1.7909600041274375E12,2148.4375
111,8284754.0,8284754.0,252830.62744140625,8284754.0,3.1739130434782608,1301.0,10.347826086956522,1961.0,0.8478260869565217,2175.0,0.25445292620865256,-564.0,-0.022451728783116708,1132.0,-0.022451728783116274,-59.0,-0.13493253373313344,32.0,-0.047976011994003,-90.0,0.5847076461769115,-390.0,4210.989010989011,2874.0,100.0,0.0,100.0,1.79096000431E12,-1.0,1.7909600041469688E12,2167.96875
112,8285394.0,8285394.0,252850.15869140625,8285394.0,3.1739130434782608,1301.0,10.347826086956522,1961.0,0.858695652173913,2174.0,-0.11884448435862846,-557.0,-0.1290226014069757,1156.0,0.009579404280796254,-61.0,-0.12893553223388304,18.0,-0.026986506746626684,-86.0,0.5742128935532234,-383.0,4209.523809523809,2873.0,100.0,0.0,100.0,1.79096000431E12,-1.0,1.7909600041665E12,2187.5
113,8286034.0,8286034.0,252869.68994140625,8286034.0,3.1630434782608696,1299.0,10.369565217391305,1962.0,0.858695652173913,2174.0,0.3849723095345013,-548.0,-0.26193683580302307,1123.0,-0.19069001646460113,-48.0,-0.14392803598200898,18.0,-0.026986506746626684,-96.0,0.5742128935532234,-383.0,4209.523809523809,2873.0,100.0,0.0,100.0,1.79096000431E12,-1.0,1.7909600041860312E12,2207.03125
114,8286674.0,8286674.0,252889.22119140625,8286674.0,3.1739130434782608,1302.0,10.33695652173913,1961.0,0.858695652173913,2174.0,0.1014818140996871,-579.0,0.2161353090854658,1141.0,-0.07843137254901965,-55.0,-0.12893553223388304,16.0,-0.0239880059970015,-86.0,0.5817091454272864,-388.0,4209.523809523809,2873.0,100.0,0.0,100.0,1.790960004434E12,-1.0,1.7909600042055625E12,2226.5625
115,8287314.0,8287314.0,252908.75244140625,8287314.0,3.1630434782608696,1301.0,10.347826086956522,1962.0,0.858695652173913,2174.0,0.023649154318215154,-561.0,-0.06376290974404958,1146.0,-0.07394102679239635,-55.0,-0.13793103448275862,10.0,-0.014992503748125937,-92.0,0.5877061469265367,-392.0,4209.523809523809,2873.0,100.0,0.0,100.0,1.790960004434E12,-1.0,1.7909600042250938E12,2246.09375
116,8287954.0,8287954.0,252928.28369140625,8287954.0,3.184782608695652,1302.0,10.33695652173913,1960.0,0.8478260869565217,2175.0,-0.08202364915431651,-557.0,-0.12183804819637806,1153.0,-0.21194431971261787,-46.0,-0.12143928035982009,23.0,-0.034482758620689655,-81.0,0.5742128935532234,-383.0,4209.523809523809,2873.0,100.0,0.0,100.0,1.790960004434E12,-1.0,1.790960004244625E12,2265.625
117,8288594.0,8288594.0,252947.81494140625,8288594.0,3.1739130434782608,1300.0,10.358695652173912,1961.0,0.858695652173913,2174.0,0.13351294716359832,-553.0,-0.18111061218380498,1139.0,-0.004190989372848361,-59.0,-0.13043478260869565,15.0,-0.022488755622188904,-87.0,0.5697151424287856,-380.0,4210.989010989011,2874.0,100.0,0.0,100.0,1.790960004434E12,-1.0,1.7909600042641562E12,2285.15625
118,8289234.0,8289234.0,252967.34619140625,8289234.0,3.1739130434782608,1301.0,10.347826086956522,1961.0,0.8478260869565217,2175.0,-0.13441101631492217,-561.0,-0.05508157461457889,1156.0,-0.0969914683430624,-53.0,-0.12743628185907047,17.0,-0.025487256371814093,-85.0,0.5697151424287856,-380.0,4209.523809523809,2873.0,100.0,0.0,100.0,1.790960004434E12,-1.0,1.7909600042836875E12,2304.6875
119,8289874.0,8289874.0,252986.87744140625,8289874.0,3.1956521739130435,1300.0,10.358695652173912,1959.0,0.858695652173913,2174.0,0.08202364915431651,-571.0,0.0916030534351145,1142.0,-0.3343810806765454,-37.0,-0.12443778110944527,28.0,-0.041979010494752625,-83.0,0.5637181409295352,-376.0,4210.989010989011,2874.0,100.0,0.0,100.0,1.790960004434E12,-1.0,1.7909600043032188E12,2324.21875
120,8290514.0,8290514.0,253006.40869140625,8290514.0,3.1956521739130435,1300.0,10.358695652173912,1959.0,0.8804347826086957,2172.0,-0.2308037718904339,-570.0,0.07543780871127158,1162.0,0.05328543631192938,-62.0,-0.11394302848575712,26.0,-0.038980509745127435,-76.0,0.5712143928035982,-381.0,4210.989010989011,2874.0,100.0,0.0,100.0,1.790960004557E12,-1.0,1.79096000432275E12,2343.75
121,8291154.0,8291154.0,253025.93994140625,8291154.0,3.1630434782608696,1301.0,10.347826086956522,1962.0,0.8695652173913043,2173.0,0.0017961383026476705,-564.0,-0.018560095794043285,1147.0,-0.17392605897320756,-47.0,-0.1169415292353823,26.0,-0.038980509745127435,-78.0,0.5862068965517241,-391.0,4209.523809523809,2873.0,100.0,0.0,100.0,1.790960004557E12,-1.0,1.7909600043422812E12,2363.28125
122,8291794.0,8291794.0,253045.47119140625,8291794.0,3.1630434782608696,1300.0,10.358695652173912,1962.0,0.8369565217391304,2176.0,-0.0601706331387525,-561.0,-0.06555904804669899,1151.0,-0.022451728783116274,-57.0,-0.13493253373313344,25.0,-0.037481259370314844,-90.0,0.5697151424287856,-380.0,4209.523809523809,2873.0,100.0,0.0,100.0,1.790960004557E12,-1.0,1.7909600043618125E12,2382.8125
123,8292434.0,8292434.0,253065.00244140625,8292434.0,3.1956521739130435,1300.0,10.358695652173912,1959.0,0.8913043478260869,2171.0,0.02125430324801826,-569.0,0.058075138452326744,1146.0,-0.2077533303397695,-45.0,-0.12743628185907047,22.0,-0.03298350824587706,-85.0,0.5502248875562219,-367.0,4209.523809523809,2873.0,100.0,0.0,100.0,1.790960004557E12,-1.0,1.7909600043813438E12,2402.34375
124,8293074.0,8293074.0,253084.53369140625,8293074.0,3.184782608695652,1299.0,10.369565217391305,1960.0,0.8478260869565217,2175.0,0.004789702140397259,-577.0,0.17662026642718234,1147.0,-0.1541685376440653,-48.0,-0.13793103448275862,15.0,-0.022488755622188904,-92.0,0.5622188905547226,-375.0,4209.523809523809,2873.0,100.0,0.0,100.0,1.790960004557E12,-1.0,1.790960004400875E12,2421.875
125,8293714.0,8293714.0,253104.06494140625,8293714.0,3.1739130434782608,1301.0,10.347826086956522,1961.0,0.858695652173913,2174.0,-0.07334231402484583,-575.0,0.1418949259092944,1152.0,-0.15446789402784014,-48.0,-0.136431784107946,18.0,-0.026986506746626684,-91.0,0.5787106446776612,-386.0,4209.523809523809,2873.0,100.0,0.0,100.0,1.790960004557E12,-1.0,1.7909600044204062E12,2441.40625
126,8294354.0,8294354.0,253123.59619140625,8294354.0,3.184782608695652,1301.0,10.347826086956522,1960.0,0.8478260869565217,2175.0,0.11076186199670701,-550.0,-0.2418799580901067,1140.0,0.10716958539140842,-65.0,-0.13493253373313344,25.0,-0.037481259370314844,-90.0,0.5622188905547226,-375.0,4209.523809523809,2873.0,100.0,0.0,100.0,1.790960004676E12,-1.0,1.7909600044399375E12,2460.9375
127,8294994.0,8294994.0,253143.12744140625,8294994.0,3.1956521739130435,1302.0,10.33695652173913,1959.0,0.8478260869565217,2175.0,-0.13321359077982373,-566.0,0.011375542583445659,1156.0,-0.17063313875168382,-47.0,-0.14392803598200898,13.0,-0.019490254872563718,-96.0,0.5742128935532234,-383.0,4209.523809523809,2873.0,100.0,0.0,100.0,1.790960004676E12,-1.0,1.7909600044594688E12,2480.46875
128,8295634.0,8295634.0,253162.65869140625,8295634.0,3.1956521739130435,1300.0,10.358695652173912,1959.0,0.8913043478260869,2171.0,0.4077233947013926,-571.0,0.0883101332135903,1121.0,0.04759766502020655,-61.0,-0.13043478260869565,17.0,-0.025487256371814093,-87.0,0.5697151424287856,-380.0,4209.523809523809,2873.0,100.0,0.0,100.0,1.790960004676E12,-1.0,1.790960004479E12,2500.0
129,8296274.0,8296274.0,253182.18994140625,8296274.0,3.1739130434782608,1301.0,10.347826086956522,1961.0,0.8695652173913043,2173.0,0.07843137254902117,-576.0,0.1658434366112859,1142.0,0.22960634635533603,-73.0,-0.12143928035982009,8.0,-0.01199400299850075,-81.0,0.5742128935532234,-383.0,4209.523809523809,2873.0,100.0,0.0,100.0,1.790960004676E12,-1.0,1.7909600044985312E12,2519.53125
130,8296914.0,8296914.0,253201.72119140625,8296914.0,3.184782608695652,1301.0,10.347826086956522,1960.0,0.8695652173913043,2173.0,0.31791647956892577,-554.0,-0.17572219727585678,1126.0,0.041909893728483714,-61.0,-0.12743628185907047,7.0,-0.010494752623688156,-85.0,0.5727136431784108,-382.0,4209.523809523809,2873.0,100.0,0.0,100.0,1.790960004676E12,-1.0,1.7909600045180625E12,2539.0625
131,8297554.0,8297554.0,253221.25244140625,8297554.0,3.184782608695652,1301.0,10.347826086956522,1960.0,0.858695652173913,2174.0,-0.11255800029935467,-559.0,-0.09818889387816117,1154.0,-0.30444544229905696,-38.0,-0.12893553223388304,18.0,-0.026986506746626684,-86.0,0.5667166416791604,-378.0,4209.523809523809,2873.0,100.0,0.0,100.0,1.790960004676E12,-1.0,1.7909600045375938E12,2558.59375
132,8298194.0,8298194.0,253240.78369140625,8298194.0,3.184782608695652,1302.0,10.33695652173913,1960.0,0.8478260869565217,2175.0,-0.07843137254902117,-573.0,0.11764705882353002,1152.0,0.08591528214339167,-63.0,-0.13043478260869565,12.0,-0.017991004497751123,-87.0,0.5652173913043478,-377.0,4209.523809523809,2873.0,100.0,0.0,100.0,1.790960004799E12,-1.0,1.790960004557125E12,2578.125
133,8298834.0,8298834.0,253260.31494140625,8298834.0,3.1739130434782608,1301.0,10.347826086956522,1961.0,0.858695652173913,2174.0,-0.030234994761263553,-581.0,0.23768896871725867,1149.0,0.12842388863942525,-66.0,-0.12443778110944527,23.0,-0.034482758620689655,-83.0,0.5667166416791604,-378.0,4210.989010989011,2874.0,100.0,0.0,100.0,1.790960004799E12,-1.0,1.7909600045766562E12,2597.65625
134,8299474.0,8299474.0,253279.84619140625,8299474.0,3.184782608695652,1301.0,10.347826086956522,1960.0,0.858695652173913,2174.0,0.1389013620715448,-573.0,0.1122586439155818,1138.0,-0.10237988325101029,-51.0,-0.13193403298350825,16.0,-0.0239880059970015,-88.0,0.5667166416791604,-378.0,4209.523809523809,2873.0,100.0,0.0,100.0,1.790960004799E12,-1.0,1.7909600045961875E12,2617.1875
135,8300114.0,8300114.0,253299.37744140625,8300114.0,3.184782608695652,1303.0,10.326086956521738,1960.0,0.8695652173913043,2173.0,-0.27301302200269584,-567.0,0.018859452177817895,1165.0,0.0969914683430625,-64.0,-0.13493253373313344,7.0,-0.010494752623688156,-90.0,0.5727136431784108,-382.0,4209.523809523809,2873.0,100.0,0.0,100.0,1.790960004799E12,-1.0,1.7909600046157188E12,2636.71875
136,8300754.0,8300754.0,253318.90869140625,8300754.0,3.1739130434782608,1302.0,10.33695652173913,1961.0,0.858695652173913,2174.0,0.16255051638976342,-564.0,-0.027840143691064925,1137.0,-0.24098188893878156,-42.0,-0.13793103448275862,22.0,-0.03298350824587706,-92.0,0.5877061469265367,-392.0,4209.523809523809,2873.0,100.0,0.0,100.0,1.790960004799E12,-1.0,1.79096000463525E12,2656.25
137,8301394.0,8301394.0,253338.43994140625,8301394.0,3.1630434782608696,1300.0,10.358695652173912,1962.0,0.8369565217391304,2176.0,-0.16195180362221073,-551.0,-0.22511600059871284,1158.0,0.007483909594372019,-58.0,-0.13193403298350825,23.0,-0.034482758620689655,-88.0,0.5712143928035982,-381.0,4209.523809523809,2873.0,100.0,0.0,100.0,1.790960004799E12,-1.0,1.7909600046547812E12,2675.78125
138,8302034.0,8302034.0,253357.97119140625,8302034.0,3.1956521739130435,1300.0,10.358695652173912,1959.0,0.8478260869565217,2175.0,0.15985630893578845,-573.0,0.11255800029935642,1137.0,0.2846879209699146,-76.0,-0.13193403298350825,18.0,-0.026986506746626684,-88.0,0.5712143928035982,-381.0,4209.523809523809,2873.0,100.0,0.0,100.0,1.790960004918E12,-1.0,1.7909600046743125E12,2695.3125
139,8302674.0,8302674.0,253377.50244140625,8302674.0,3.1956521739130435,1301.0,10.347826086956522,1959.0,0.858695652173913,2174.0,0.21583595270169292,-573.0,0.1140547822182312,1133.0,0.27989821882951643,-76.0,-0.12743628185907047,17.0,-0.025487256371814093,-85.0,0.5622188905547226,-375.0,4209.523809523809,2873.0,100.0,0.0,100.0,1.790960004918E12,-1.0,1.7909600046938438E12,2714.84375
140,8303314.0,8303314.0,253397.03369140625,8303314.0,3.1739130434782608,1301.0,10.347826086956522,1961.0,0.858695652173913,2174.0,-0.18560095794042936,-561.0,-0.06855261188444857,1159.0,-0.18260739410267923,-46.0,-0.1409295352323838,11.0,-0.01649175412293853,-94.0,0.56071964017991,-374.0,4210.989010989011,2874.0,100.0,0.0,100.0,1.790960004918E12,-1.0,1.790960004713375E12,2734.375
141,8303954.0,8303954.0,253416.56494140625,8303954.0,3.1739130434782608,1300.0,10.358695652173912,1961.0,0.8369565217391304,2176.0,-0.10776829815895742,-549.0,-0.24996258045202815,1154.0,0.17272863343810804,-69.0,-0.13493253373313344,15.0,-0.022488755622188904,-90.0,0.5802098950524738,-387.0,4209.523809523809,2873.0,100.0,0.0,100.0,1.790960004918E12,-1.0,1.7909600047329062E12,2753.90625
142,8304594.0,8304594.0,253436.09619140625,8304594.0,3.184782608695652,1303.0,10.326086956521738,1960.0,0.858695652173913,2174.0,-0.014369106421195248,-562.0,-0.05118994162550547,1148.0,0.20475976650202068,-71.0,-0.11544227886056971,15.0,-0.022488755622188904,-77.0,0.5697151424287856,-380.0,4209.523809523809,2873.0,100.0,0.0,100.0,1.790960004918E12,-1.0,1.7909600047524375E12,2773.4375
143,8305234.0,8305234.0,253455.62744140625,8305234.0,3.1956521739130435,1301.0,10.347826086956522,1959.0,0.858695652173913,2174.0,-0.10806765454273203,-569.0,0.05478221823080428,1154.0,-0.10178117048346053,-51.0,-0.1424287856071964,17.0,-0.025487256371814093,-95.0,0.5652173913043478,-377.0,4209.523809523809,2873.0,100.0,0.0,100.0,1.790960004918E12,-1.0,1.7909600047719688E12,2792.96875
144,8305874.0,8305874.0,253475.15869140625,8305874.0,3.217391304347826,1299.0,10.369565217391305,1957.0,0.858695652173913,2174.0,-0.004789702140397259,-554.0,-0.1781170483460554,1147.0,0.22481664421493788,-72.0,-0.12443778110944527,21.0,-0.031484257871064465,-83.0,0.5637181409295352,-376.0,4209.523809523809,2873.0,100.0,0.0,100.0,1.790960005038E12,-1.0,1.7909600047915E12,2812.5
145,8306514.0,8306514.0,253494.68994140625,8306514.0,3.1739130434782608,1301.0,10.347826086956522,1961.0,0.8695652173913043,2173.0,0.01466846280496986,-555.0,-0.1607543780871123,1146.0,0.22361921867983836,-72.0,-0.136431784107946,18.0,-0.026986506746626684,-91.0,0.5637181409295352,-376.0,4209.523809523809,2873.0,100.0,0.0,100.0,1.790960005038E12,-1.0,1.7909600048110312E12,2832.03125
146,8307154.0,8307154.0,253514.22119140625,8307154.0,3.184782608695652,1302.0,10.33695652173913,1960.0,0.8478260869565217,2175.0,-0.08531656937584071,-551.0,-0.21493788355036736,1152.0,0.033527914982787,-60.0,-0.13043478260869565,7.0,-0.010494752623688156,-87.0,0.5847076461769115,-390.0,4209.523809523809,2873.0,100.0,0.0,100.0,1.790960005038E12,-1.0,1.7909600048305625E12,2851.5625
147,8307794.0,8307794.0,253533.75244140625,8307794.0,3.184782608695652,1301.0,10.347826086956522,1960.0,0.858695652173913,2174.0,-0.10178117048346172,-560.0,-0.07543780871127158,1153.0,-0.3313875168387965,-36.0,-0.1184407796101949,10.0,-0.014992503748125937,-79.0,0.5877061469265367,-392.0,4210.989010989011,2874.0,100.0,0.0,100.0,1.790960005038E12,-1.0,1.7909600048500938E12,2871.09375
148,8308434.0,8308434.0,253553.28369140625,8308434.0,3.1956521739130435,1301.0,10.347826086956522,1959.0,0.8804347826086957,2172.0,-0.2182308037718898,-565.0,0.006585840443046665,1161.0,-0.1389013620715462,-48.0,-0.136431784107946,11.0,-0.01649175412293853,-91.0,0.5712143928035982,-381.0,4209.523809523809,2873.0,100.0,0.0,100.0,1.790960005038E12,-1.0,1.790960004869625E12,2890.625
149,8309074.0,8309074.0,253572.81494140625,8309074.0,3.184782608695652,1303.0,10.326086956521738,1960.0,0.858695652173913,2174.0,-0.014967819188744472,-566.0,0.023349797934440544,1148.0,-0.023349797934440978,-55.0,-0.1169415292353823,21.0,-0.031484257871064465,-78.0,0.5712143928035982,-381.0,4209.523809523809,2873.0,100.0,0.0,100.0,1.790960005038E12,-1.0,1.7909600048891562E12,2910.15625
150,8309714.0,8309714.0,253592.34619140625,8309714.0,3.1956521739130435,1301.0,10.347826086956522,1959.0,0.858695652173913,2174.0,0.21164496332884142,-562.0,-0.03382727136656237,1133.0,0.31372549019607837,-77.0,-0.13043478260869565,12.0,-0.017991004497751123,-87.0,0.5697151424287856,-380.0,4209.523809523809,2873.0,100.0,0.0,100.0,1.790960005159E12,-1.0,1.7909600049086875E12,2929.6875
151,8310354.0,8310354.0,253611.87744140625,8310354.0,3.1956521739130435,1300.0,10.358695652173912,1959.0,0.8913043478260869,2171.0,0.10178117048346172,-566.0,0.03083370752881278,1140.0,0.005987127675497659,-57.0,-0.13193403298350825,16.0,-0.0239880059970015,-88.0,0.5817091454272864,-388.0,4209.523809523809,2873.0,100.0,0.0,100.0,1.790960005159E12,-1.0,1.7909600049282188E12,2949.21875
152,8310994.0,8310994.0,253631.40869140625,8310994.0,3.1956521739130435,1302.0,10.33695652173913,1959.0,0.8478260869565217,2175.0,-0.09998503218081058,-565.0,0.02035623409669269,1153.0,-0.04161053734470889,-54.0,-0.13043478260869565,10.0,-0.014992503748125937,-87.0,0.5802098950524738,-387.0,4209.523809523809,2873.0,100.0,0.0,100.0,1.790960005159E12,-1.0,1.79096000494775E12,2968.75
153,8311634.0,8311634.0,253650.93994140625,8311634.0,3.2065217391304346,1301.0,10.347826086956522,1958.0,0.858695652173913,2174.0,-0.4819637778775623,-552.0,-0.1817093249513542,1178.0,-0.23948510701990722,-41.0,-0.13193403298350825,18.0,-0.026986506746626684,-88.0,0.56071964017991,-374.0,4209.523809523809,2873.0,100.0,0.0,100.0,1.790960005159E12,-1.0,1.7909600049672812E12,2988.28125
154,8312274.0,8312274.0,253670.47119140625,8312274.0,3.184782608695652,1300.0,10.358695652173912,1960.0,0.858695652173913,2174.0,-0.08681335129471725,-565.0,0.02035623409669269,1153.0,-0.08262236192186802,-51.0,-0.13193403298350825,28.0,-0.041979010494752625,-88.0,0.5712143928035982,-381.0,4209.523809523809,2873.0,100.0,0.0,100.0,1.790960005159E12,-1.0,1.7909600049868125E12,3007.8125
155,8312914.0,8312914.0,253690.00244140625,8312914.0,3.1630434782608696,1301.0,10.347826086956522,1962.0,0.8695652173913043,2173.0,-0.1799131866487048,-560.0,-0.05508157461457889,1159.0,0.3918575063613231,-82.0,-0.12893553223388304,16.0,-0.0239880059970015,-86.0,0.5742128935532234,-383.0,4209.523809523809,2873.0,100.0,0.0,100.0,1.790960005159E12,-1.0,1.7909600050063438E12,3027.34375
156,8313554.0,8313554.0,253709.53369140625,8313554.0,3.1956521739130435,1301.0,10.347826086956522,1959.0,0.8369565217391304,2176.0,0.19009130369705202,-577.0,0.2005687771291721,1135.0,0.1397994312228708,-66.0,-0.12743628185907047,10.0,-0.014992503748125937,-85.0,0.5652173913043478,-377.0,4209.523809523809,2873.0,100.0,0.0,100.0,1.79096000528E12,-1.0,1.790960005025875E12,3046.875
157,8314194.0,8314194.0,253729.06494140625,8314194.0,3.1956521739130435,1300.0,10.358695652173912,1959.0,0.858695652173913,2174.0,0.10776829815895742,-564.0,-0.005089058524173606,1140.0,0.27091752731626995,-75.0,-0.13193403298350825,23.0,-0.034482758620689655,-88.0,0.5742128935532234,-383.0,4209.523809523809,2873.0,100.0,0.0,100.0,1.79096000528E12,-1.0,1.7909600050454062E12,3066.40625
158,8314834.0,8314834.0,253748.59619140625,8314834.0,3.184782608695652,1300.0,10.358695652173912,1960.0,0.8695652173913043,2173.0,-0.12123933542882884,-566.0,0.027540787307288577,1155.0,-0.05807513845232751,-54.0,-0.12743628185907047,15.0,-0.022488755622188904,-85.0,0.5727136431784108,-382.0,4209.523809523809,2873.0,100.0,0.0,100.0,1.79096000528E12,-1.0,1.7909600050649375E12,3085.9375
159,8315474.0,8315474.0,253768.12744140625,8315474.0,3.1956521739130435,1302.0,10.33695652173913,1959.0,0.8695652173913043,2173.0,0.06226612782517478,-558.0,-0.09699146834306271,1143.0,-0.026642718155964633,-56.0,-0.136431784107946,16.0,-0.0239880059970015,-91.0,0.5742128935532234,-383.0,4209.523809523809,2873.0,100.0,0.0,100.0,1.79096000528E12,-1.0,1.7909600050844688E12,3105.46875
160,8316114.0,8316114.0,253787.65869140625,8316114.0,3.1630434782608696,1301.0,10.347826086956522,1962.0,0.858695652173913,2174.0,0.12333483011525112,-570.0,0.08801077682981569,1139.0,0.020356234096692148,-59.0,-0.12743628185907047,5.0,-0.0074962518740629685,-85.0,0.5802098950524738,-387.0,4209.523809523809,2873.0,100.0,0.0,100.0,1.79096000528E12,-1.0,1.790960005104E12,3125.0
161,8316754.0,8316754.0,253807.18994140625,8316754.0,3.2065217391304346,1301.0,10.347826086956522,1958.0,0.8478260869565217,2175.0,0.0032929202215242004,-569.0,0.07184553210597278,1147.0,0.08591528214339167,-63.0,-0.136431784107946,16.0,-0.0239880059970015,-91.0,0.5667166416791604,-378.0,4210.989010989011,2874.0,100.0,0.0,100.0,1.79096000528E12,-1.0,1.7909600051235312E12,3144.53125
162,8317394.0,8317394.0,253826.72119140625,8317394.0,3.1956521739130435,1301.0,10.347826086956522,1959.0,0.858695652173913,2174.0,0.04610088310133186,-571.0,0.10687022900763359,1144.0,-0.17662026642718157,-46.0,-0.12443778110944527,13.0,-0.019490254872563718,-83.0,0.5742128935532234,-383.0,4209.523809523809,2873.0,100.0,0.0,100.0,1.790960005399E12,-1.0,1.7909600051430625E12,3164.0625
163,8318034.0,8318034.0,253846.25244140625,8318034.0,3.184782608695652,1301.0,10.347826086956522,1960.0,0.8478260869565217,2175.0,-0.13351294716359832,-562.0,-0.03262984583146218,1156.0,0.28528663373746443,-76.0,-0.12893553223388304,21.0,-0.031484257871064465,-86.0,0.5742128935532234,-383.0,4209.523809523809,2873.0,100.0,0.0,100.0,1.790960005399E12,-1.0,1.7909600051625938E12,3183.59375
164,8318674.0,8318674.0,253865.78369140625,8318674.0,3.1956521739130435,1303.0,10.326086956521738,1959.0,0.858695652173913,2174.0,0.09549468642418793,-553.0,-0.17153120790300874,1141.0,0.21972758569076484,-72.0,-0.12443778110944527,18.0,-0.026986506746626684,-83.0,0.5742128935532234,-383.0,4209.523809523809,2873.0,100.0,0.0,100.0,1.790960005399E12,-1.0,1.790960005182125E12,3203.125
165,8319314.0,8319314.0,253885.31494140625,8319314.0,3.1630434782608696,1299.0,10.369565217391305,1962.0,0.8478260869565217,2175.0,-0.18919323454572817,-550.0,-0.21882951653944077,1160.0,0.1362071546175722,-67.0,-0.12293853073463268,20.0,-0.029985007496251874,-82.0,0.5727136431784108,-382.0,4209.523809523809,2873.0,100.0,0.0,100.0,1.790960005399E12,-1.0,1.7909600052016562E12,3222.65625
166,8319954.0,8319954.0,253904.84619140625,8319954.0,3.1956521739130435,1301.0,10.347826086956522,1959.0,0.858695652173913,2174.0,-2.993563837746117E-4,-567.0,0.04939380332285606,1148.0,0.1478820535847927,-68.0,-0.11094452773613193,22.0,-0.03298350824587706,-74.0,0.5697151424287856,-380.0,4209.523809523809,2873.0,100.0,0.0,100.0,1.790960005399E12,-1.0,1.7909600052211875E12,3242.1875
167,8320594.0,8320594.0,253924.37744140625,8320594.0,3.1956521739130435,1300.0,10.358695652173912,1959.0,0.858695652173913,2174.0,0.015566531956293695,-574.0,0.15446789402784025,1147.0,0.18979194731327642,-71.0,-0.13793103448275862,15.0,-0.022488755622188904,-92.0,0.5802098950524738,-387.0,4209.523809523809,2873.0,100.0,0.0,100.0,1.790960005399E12,-1.0,1.7909600052407188E12,3261.71875
168,8321234.0,8321234.0,253943.90869140625,8321234.0,3.2065217391304346,1300.0,10.358695652173912,1958.0,0.858695652173913,2174.0,-0.01676395749139214,-575.0,0.1646460110761857,1149.0,0.21284238886394247,-73.0,-0.12443778110944527,16.0,-0.0239880059970015,-83.0,0.56071964017991,-374.0,4209.523809523809,2873.0,100.0,0.0,100.0,1.790960005519E12,-1.0,1.79096000526025E12,3281.25
169,8321874.0,8321874.0,253963.43994140625,8321874.0,3.1739130434782608,1301.0,10.347826086956522,1961.0,0.8478260869565217,2175.0,-0.05957192037120328,-567.0,0.03592276605298639,1152.0,-0.03562340966921112,-57.0,-0.12743628185907047,22.0,-0.03298350824587706,-85.0,0.5652173913043478,-377.0,4209.523809523809,2873.0,100.0,0.0,100.0,1.790960005519E12,-1.0,1.7909600052797812E12,3300.78125
170,8322514.0,8322514.0,253982.97119140625,8322514.0,3.184782608695652,1300.0,10.358695652173912,1960.0,0.8260869565217391,2177.0,0.03083370752881278,-568.0,0.04939380332285606,1146.0,-0.25056129321957793,-43.0,-0.13793103448275862,10.0,-0.014992503748125937,-92.0,0.5577211394302848,-372.0,4209.523809523809,2873.0,100.0,0.0,100.0,1.790960005519E12,-1.0,1.7909600052993125E12,3320.3125
171,8323154.0,8323154.0,254002.50244140625,8323154.0,3.184782608695652,1300.0,10.358695652173912,1960.0,0.8695652173913043,2173.0,0.07783265978146847,-550.0,-0.2245172878311636,1143.0,0.03771890435563536,-62.0,-0.1184407796101949,20.0,-0.029985007496251874,-79.0,0.5772113943028485,-385.0,4210.989010989011,2874.0,100.0,0.0,100.0,1.790960005519E12,-1.0,1.7909600053188438E12,3339.84375
172,8323794.0,8323794.0,254022.03369140625,8323794.0,3.184782608695652,1301.0,10.347826086956522,1960.0,0.858695652173913,2174.0,-0.38587037868582513,-580.0,0.23948510701990633,1173.0,0.12932195779074987,-68.0,-0.12443778110944527,8.0,-0.01199400299850075,-83.0,0.5637181409295352,-376.0,4210.989010989011,2874.0,100.0,0.0,100.0,1.790960005519E12,-1.0,1.790960005338375E12,3359.375
173,8324434.0,8324434.0,254041.56494140625,8324434.0,3.184782608695652,1301.0,10.347826086956522,1960.0,0.858695652173913,2174.0,0.17153120790300874,-562.0,-0.04011375542583442,1137.0,0.33677593174674453,-82.0,-0.11094452773613193,30.0,-0.04497751124437781,-74.0,0.5847076461769115,-390.0,4209.523809523809,2873.0,100.0,0.0,100.0,1.790960005519E12,-1.0,1.7909600053579062E12,3378.90625
174,8325074.0,8325074.0,254061.09619140625,8325074.0,3.1739130434782608,1300.0,10.358695652173912,1961.0,0.8478260869565217,2175.0,-0.13800329292022098,-564.0,-0.009878760664570866,1157.0,0.11555156413710524,-68.0,-0.12293853073463268,17.0,-0.025487256371814093,-82.0,0.5802098950524738,-387.0,4210.989010989011,2874.0,100.0,0.0,100.0,1.790960005687E12,-1.0,1.7909600053774375E12,3398.4375
175,8325714.0,8325714.0,254080.62744140625,8325714.0,3.184782608695652,1302.0,10.33695652173913,1960.0,0.8695652173913043,2173.0,-0.19577907498877312,-581.0,0.25116000598712834,1161.0,-0.16614279299506063,-50.0,-0.15142428785607195,16.0,-0.0239880059970015,-101.0,0.5712143928035982,-381.0,4209.523809523809,2873.0,100.0,0.0,100.0,1.790960005687E12,-1.0,1.7909600053969688E12,3417.96875
176,8326354.0,8326354.0,254100.15869140625,8326354.0,3.1739130434782608,1301.0,10.347826086956522,1961.0,0.8478260869565217,2175.0,-0.09998503218081058,-564.0,-0.009579404280796254,1155.0,0.13860200568777128,-70.0,-0.13193403298350825,26.0,-0.038980509745127435,-88.0,0.5742128935532234,-383.0,4209.523809523809,2873.0,100.0,0.0,100.0,1.790960005687E12,-1.0,1.7909600054165E12,3437.5
177,8326994.0,8326994.0,254119.68994140625,8326994.0,3.1956521739130435,1302.0,10.33695652173913,1959.0,0.858695652173913,2174.0,-0.144888489747044,-557.0,-0.11315671306690564,1158.0,-0.08172429277054331,-56.0,-0.12293853073463268,15.0,-0.022488755622188904,-82.0,0.5727136431784108,-382.0,4210.989010989011,2874.0,100.0,0.0,100.0,1.790960005687E12,-1.0,1.7909600054360312E12,3457.03125
178,8327634.0,8327634.0,254139.22119140625,8327634.0,3.184782608695652,1300.0,10.358695652173912,1960.0,0.8478260869565217,2175.0,0.27271366561891774,-570.0,0.08322107468941843,1131.0,-0.3385720700493938,-39.0,-0.13193403298350825,11.0,-0.01649175412293853,-88.0,0.5712143928035982,-381.0,4209.523809523809,2873.0,100.0,0.0,100.0,1.790960005687E12,-1.0,1.7909600054555625E12,3476.5625
179,8328274.0,8328274.0,254158.75244140625,8328274.0,3.1739130434782608,1301.0,10.347826086956522,1961.0,0.858695652173913,2174.0,-0.05538093099835524,-552.0,-0.19278551115102524,1152.0,0.16763957491393497,-72.0,-0.12143928035982009,18.0,-0.026986506746626684,-81.0,0.5667166416791604,-378.0,4209.523809523809,2873.0,100.0,0.0,100.0,1.790960005687E12,-1.0,1.7909600054750938E12,3496.09375
180,8328914.0,8328914.0,254178.28369140625,8328914.0,3.184782608695652,1302.0,10.33695652173913,1960.0,0.8695652173913043,2173.0,-0.04610088310133186,-574.0,0.1487801227361174,1152.0,0.2559497081275258,-78.0,-0.13193403298350825,21.0,-0.031484257871064465,-88.0,0.5712143928035982,-381.0,4210.989010989011,2874.0,100.0,0.0,100.0,1.790960005818E12,-1.0,1.790960005494625E12,3515.625
181,8329554.0,8329554.0,254197.81494140625,8329554.0,3.2065217391304346,1301.0,10.347826086956522,1958.0,0.8804347826086957,2172.0,-0.2721149528513685,-559.0,-0.07962879808411961,1167.0,0.040712468193384185,-64.0,-0.1184407796101949,20.0,-0.029985007496251874,-79.0,0.5652173913043478,-377.0,4209.523809523809,2873.0,100.0,0.0,100.0,1.790960005818E12,-1.0,1.7909600055141562E12,3535.15625
182,8330194.0,8330194.0,254217.34619140625,8330194.0,3.1630434782608696,1300.0,10.358695652173912,1962.0,0.858695652173913,2174.0,-2.993563837746117E-4,-562.0,-0.03532405328543716,1150.0,-0.17392605897320756,-50.0,-0.12443778110944527,16.0,-0.0239880059970015,-83.0,0.5817091454272864,-388.0,4209.523809523809,2873.0,100.0,0.0,100.0,1.790960005818E12,-1.0,1.7909600055336875E12,3554.6875
183,8330834.0,8330834.0,254236.87744140625,8330834.0,3.184782608695652,1302.0,10.33695652173913,1960.0,0.8478260869565217,2175.0,-0.3373746445142929,-567.0,0.04011375542583442,1172.0,0.17362670258943275,-73.0,-0.13493253373313344,10.0,-0.014992503748125937,-90.0,0.5847076461769115,-390.0,4209.523809523809,2873.0,100.0,0.0,100.0,1.790960005818E12,-1.0,1.7909600055532188E12,3574.21875
184,8331474.0,8331474.0,254256.40869140625,8331474.0,3.184782608695652,1301.0,10.347826086956522,1960.0,0.858695652173913,2174.0,0.08082622361921807,-568.0,0.05717706930100291,1145.0,-0.012572968118545082,-61.0,-0.1169415292353823,16.0,-0.0239880059970015,-78.0,0.5742128935532234,-383.0,4209.523809523809,2873.0,100.0,0.0,100.0,1.790960005818E12,-1.0,1.79096000557275E12,3593.75
185,8332114.0,8332114.0,254275.93994140625,8332114.0,3.1739130434782608,1301.0,10.347826086956522,1961.0,0.8695652173913043,2173.0,-0.2715162400838193,-566.0,0.030534351145038167,1168.0,0.019458164945367444,-63.0,-0.12743628185907047,17.0,-0.025487256371814093,-85.0,0.5727136431784108,-382.0,4209.523809523809,2873.0,100.0,0.0,100.0,1.790960005818E12,-1.0,1.7909600055922812E12,3613.28125
186,8332754.0,8332754.0,254295.47119140625,8332754.0,3.1739130434782608,1301.0,10.347826086956522,1961.0,0.858695652173913,2174.0,-0.0029935638377495888,-580.0,0.24637030384672934,1151.0,-0.1215386918126029,-54.0,-0.13493253373313344,17.0,-0.025487256371814093,-90.0,0.5652173913043478,-377.0,4209.523809523809,2873.0,100.0,0.0,100.0,1.790960005939E12,-1.0,1.7909600056118125E12,3632.8125
187,8333394.0,8333394.0,254315.00244140625,8333394.0,3.1956521739130435,1301.0,10.347826086956522,1959.0,0.8695652173913043,2173.0,0.00808262236192146,-550.0,-0.21553659631791658,1150.0,0.034126627750336765,-64.0,-0.12143928035982009,16.0,-0.0239880059970015,-81.0,0.5742128935532234,-383.0,4210.989010989011,2874.0,100.0,0.0,100.0,1.790960005939E12,-1.0,1.7909600056313438E12,3652.34375
188,8334034.0,8334034.0,254334.53369140625,8334034.0,3.1956521739130435,1301.0,10.347826086956522,1959.0,0.8478260869565217,2175.0,0.1646460110761857,-552.0,-0.18081125580003038,1140.0,-0.10986379284538242,-55.0,-0.1184407796101949,12.0,-0.017991004497751123,-79.0,0.5847076461769115,-390.0,4210.989010989011,2874.0,100.0,0.0,100.0,1.790960005939E12,-1.0,1.790960005650875E12,3671.875
189,8334674.0,8334674.0,254354.06494140625,8334674.0,3.1739130434782608,1301.0,10.347826086956522,1961.0,0.8695652173913043,2173.0,0.021853016015567484,-555.0,-0.13530908546624773,1149.0,-0.032629845831462403,-60.0,-0.12743628185907047,15.0,-0.022488755622188904,-85.0,0.5727136431784108,-382.0,4209.523809523809,2873.0,100.0,0.0,100.0,1.790960005939E12,-1.0,1.7909600056704062E12,3691.40625
190,8335314.0,8335314.0,254373.59619140625,8335314.0,3.184782608695652,1301.0,10.347826086956522,1960.0,0.8478260869565217,2175.0,-0.020356234096690955,-556.0,-0.11465349498578044,1152.0,-0.04310731926358325,-59.0,-0.12143928035982009,18.0,-0.026986506746626684,-81.0,0.5787106446776612,-386.0,4209.523809523809,2873.0,100.0,0.0,100.0,1.790960005939E12,-1.0,1.7909600056899375E12,3710.9375
191,8335954.0,8335954.0,254393.12744140625,8335954.0,3.2065217391304346,1300.0,10.358695652173912,1958.0,0.8478260869565217,2175.0,-0.07573716509504619,-551.0,-0.18590031432420223,1156.0,0.5116000598712767,-95.0,-0.10794602698650674,17.0,-0.025487256371814093,-72.0,0.5697151424287856,-380.0,4209.523809523809,2873.0,100.0,0.0,100.0,1.790960005939E12,-1.0,1.7909600057094688E12,3730.46875
192,8336594.0,8336594.0,254412.65869140625,8336594.0,3.184782608695652,1301.0,10.347826086956522,1960.0,0.8260869565217391,2177.0,-2.993563837746117E-4,-569.0,0.09190240981888911,1151.0,-0.29696153270468495,-43.0,-0.13793103448275862,22.0,-0.03298350824587706,-92.0,0.5622188905547226,-375.0,4209.523809523809,2873.0,100.0,0.0,100.0,1.790960006117E12,-1.0,1.790960005729E12,3750.0
193,8337234.0,8337234.0,254432.18994140625,8337234.0,3.1956521739130435,1301.0,10.347826086956522,1959.0,0.8478260869565217,2175.0,-0.24547223469540377,-544.0,-0.2957641071695854,1167.0,-0.2739110911540188,-44.0,-0.13493253373313344,22.0,-0.03298350824587706,-90.0,0.5652173913043478,-377.0,4210.989010989011,2874.0,100.0,0.0,100.0,1.790960006117E12,-1.0,1.7909600057485312E12,3769.53125
194,8337874.0,8337874.0,254451.72119140625,8337874.0,3.184782608695652,1301.0,10.347826086956522,1960.0,0.8695652173913043,2173.0,-0.19398293668612543,-575.0,0.18290675048645438,1164.0,0.20745397395599458,-75.0,-0.1409295352323838,23.0,-0.034482758620689655,-94.0,0.553223388305847,-369.0,4210.989010989011,2874.0,100.0,0.0,100.0,1.790960006117E12,-1.0,1.7909600057680625E12,3789.0625
195,8338514.0,8338514.0,254471.25244140625,8338514.0,3.184782608695652,1303.0,10.326086956521738,1960.0,0.8478260869565217,2175.0,-0.038317617123185016,-560.0,-0.04789702140398127,1154.0,0.10866636731028288,-69.0,-0.1424287856071964,7.0,-0.010494752623688156,-95.0,0.5772113943028485,-385.0,4209.523809523809,2873.0,100.0,0.0,100.0,1.790960006117E12,-1.0,1.7909600057875938E12,3808.59375
196,8339154.0,8339154.0,254490.78369140625,8339154.0,3.184782608695652,1301.0,10.347826086956522,1960.0,0.858695652173913,2174.0,-0.1888938781619501,-548.0,-0.23289926657685966,1164.0,-0.3789851818590031,-37.0,-0.12143928035982009,21.0,-0.031484257871064465,-81.0,0.5817091454272864,-388.0,4209.523809523809,2873.0,100.0,0.0,100.0,1.790960006117E12,-1.0,1.790960005807125E12,3828.125
197,8339794.0,8339794.0,254510.31494140625,8339794.0,3.1956521739130435,1301.0,10.347826086956522,1959.0,0.8695652173913043,2173.0,0.0760365214788208,-568.0,0.07453973955994601,1147.0,-0.01736267025894332,-60.0,-0.12443778110944527,3.0,-0.004497751124437781,-83.0,0.5817091454272864,-388.0,4209.523809523809,2873.0,100.0,0.0,100.0,1.790960006117E12,-1.0,1.7909600058266562E12,3847.65625
198,8340434.0,8340434.0,254529.84619140625,8340434.0,3.184782608695652,1300.0,10.358695652173912,1960.0,0.8695652173913043,2173.0,0.1966771441401004,-552.0,-0.17482412812453293,1139.0,0.10477473432120935,-68.0,-0.13193403298350825,18.0,-0.026986506746626684,-88.0,0.5862068965517241,-391.0,4209.523809523809,2873.0,100.0,0.0,100.0,1.790960006231E12,-1.0,1.7909600058461875E12,3867.1875
199,8341074.0,8341074.0,254549.37744140625,8341074.0,3.184782608695652,1304.0,10.315217391304348,1960.0,0.858695652173913,2174.0,-0.14339170782817093,-563.0,-0.004490345756622647,1161.0,-0.05747642568477774,-58.0,-0.136431784107946,11.0,-0.01649175412293853,-91.0,0.5817091454272864,-388.0,4210.989010989011,2874.0,100.0,0.0,100.0,1.790960006231E12,-1.0,1.7909600058657188E12,3886.71875
200,8341714.0,8341714.0,254568.90869140625,8341714.0,3.1956521739130435,1302.0,10.33695652173913,1959.0,0.8695652173913043,2173.0,-0.0670558299655755,-568.0,0.072444244873522,1156.0,0.18380481963777875,-74.0,-0.13193403298350825,16.0,-0.0239880059970015,-88.0,0.5637181409295352,-376.0,4209.523809523809,2873.0,100.0,0.0,100.0,1.790960006231E12,-1.0,1.79096000588525E12,3906.25
201,8342354.0,8342354.0,254588.43994140625,8342354.0,3.1956521739130435,1300.0,10.358695652173912,1959.0,0.858695652173913,2174.0,0.08801077682981569,-557.0,-0.09609339919173715,1146.0,-0.1577608142493639,-52.0,-0.1409295352323838,18.0,-0.026986506746626684,-94.0,0.5712143928035982,-381.0,4208.058608058608,2872.0,100.0,0.0,100.0,1.790960006231E12,-1.0,1.7909600059047812E12,3925.78125
202,8342994.0,8342994.0,254607.97119140625,8342994.0,3.1956521739130435,1300.0,10.358695652173912,1959.0,0.8804347826086957,2172.0,-0.030234994761263553,-572.0,0.13441101631492217,1154.0,-0.10447537793743453,-55.0,-0.13493253373313344,15.0,-0.022488755622188904,-90.0,0.5727136431784108,-382.0,4209.523809523809,2873.0,100.0,0.0,100.0,1.790960006231E12,-1.0,1.7909600059243125E12,3945.3125
203,8343634.0,8343634.0,254627.50244140625,8343634.0,3.1630434782608696,1301.0,10.347826086956522,1962.0,0.858695652173913,2174.0,0.0502918724741799,-569.0,0.0868133512947155,1149.0,-0.08860948959736567,-56.0,-0.13793103448275862,12.0,-0.017991004497751123,-92.0,0.5697151424287856,-380.0,4210.989010989011,2874.0,100.0,0.0,100.0,1.790960006231E12,-1.0,1.7909600059438438E12,3964.84375
204,8344274.0,8344274.0,254647.03369140625,8344274.0,3.1739130434782608,1301.0,10.347826086956522,1961.0,0.858695652173913,2174.0,-0.1951803622212239,-560.0,-0.05178865439305469,1165.0,0.0023948510701990635,-62.0,-0.12293853073463268,25.0,-0.037481259370314844,-82.0,0.5577211394302848,-372.0,4210.989010989011,2874.0,100.0,0.0,100.0,1.790960006358E12,-1.0,1.790960005963375E12,3984.375
205,8344914.0,8344914.0,254666.56494140625,8344914.0,3.184782608695652,1301.0,10.347826086956522,1960.0,0.8695652173913043,2173.0,-0.01586588834006831,-568.0,0.06795389911689935,1153.0,0.011375542583445551,-63.0,-0.1409295352323838,13.0,-0.019490254872563718,-94.0,0.56071964017991,-374.0,4210.989010989011,2874.0,100.0,0.0,100.0,1.790960006358E12,-1.0,1.7909600059829062E12,4003.90625
206,8345554.0,8345554.0,254686.09619140625,8345554.0,3.1739130434782608,1299.0,10.369565217391305,1961.0,0.8695652173913043,2173.0,0.36581350097290877,-581.0,0.26552911240832183,1128.0,-0.14488848974704388,-53.0,-0.1424287856071964,20.0,-0.029985007496251874,-95.0,0.5652173913043478,-377.0,4210.989010989011,2874.0,100.0,0.0,100.0,1.790960006358E12,-1.0,1.7909600060024375E12,4023.4375
207,8346194.0,8346194.0,254705.62744140625,8346194.0,3.184782608695652,1301.0,10.347826086956522,1960.0,0.8478260869565217,2175.0,0.23439604849573273,-577.0,0.19817392605897347,1136.0,0.0317317766801377,-64.0,-0.13493253373313344,20.0,-0.029985007496251874,-90.0,0.5652173913043478,-377.0,4210.989010989011,2874.0,100.0,0.0,100.0,1.790960006358E12,-1.0,1.7909600060219688E12,4042.96875
208,8346834.0,8346834.0,254725.15869140625,8346834.0,3.1956521739130435,1302.0,10.33695652173913,1959.0,0.8478260869565217,2175.0,0.24996258045202643,-582.0,0.2745098039215689,1135.0,0.03233048944768747,-64.0,-0.12893553223388304,13.0,-0.019490254872563718,-86.0,0.5742128935532234,-383.0,4209.523809523809,2873.0,100.0,0.0,100.0,1.790960006358E12,-1.0,1.7909600060415E12,4062.5
209,8347474.0,8347474.0,254744.68994140625,8347474.0,3.184782608695652,1300.0,10.358695652173912,1960.0,0.858695652173913,2174.0,0.18739709624307704,-564.0,-0.005687771291722829,1139.0,0.03562340966921123,-64.0,-0.136431784107946,26.0,-0.038980509745127435,-91.0,0.56071964017991,-374.0,4210.989010989011,2874.0,100.0,0.0,100.0,1.790960006358E12,-1.0,1.7909600060610312E12,4082.03125
210,8348114.0,8348114.0,254764.22119140625,8348114.0,3.184782608695652,1302.0,10.33695652173913,1960.0,0.8369565217391304,2176.0,-0.04640023948510647,-568.0,0.055979643765902726,1154.0,0.15476725041161507,-72.0,-0.1409295352323838,8.0,-0.01199400299850075,-94.0,0.5787106446776612,-386.0,4209.523809523809,2873.0,100.0,0.0,100.0,1.790960006478E12,-1.0,1.7909600060805625E12,4101.5625
211,8348754.0,8348754.0,254783.75244140625,8348754.0,3.2065217391304346,1301.0,10.347826086956522,1958.0,0.8695652173913043,2173.0,-0.22631342613381128,-568.0,0.05298607992815487,1166.0,0.05837449483610233,-66.0,-0.1424287856071964,22.0,-0.03298350824587706,-95.0,0.5847076461769115,-390.0,4210.989010989011,2874.0,100.0,0.0,100.0,1.790960006478E12,-1.0,1.7909600061000938E12,4121.09375
212,8349394.0,8349394.0,254803.28369140625,8349394.0,3.184782608695652,1301.0,10.347826086956522,1960.0,0.8804347826086957,2172.0,0.10237988325101094,-572.0,0.11465349498578044,1145.0,0.16314922915731178,-73.0,-0.12293853073463268,20.0,-0.029985007496251874,-82.0,0.5577211394302848,-372.0,4209.523809523809,2873.0,100.0,0.0,100.0,1.790960006478E12,-1.0,1.790960006119625E12,4140.625
213,8350034.0,8350034.0,254822.81494140625,8350034.0,3.1739130434782608,1300.0,10.358695652173912,1961.0,0.8695652173913043,2173.0,0.14758269720101896,-568.0,0.05268672354438026,1142.0,0.2517587187546775,-79.0,-0.136431784107946,16.0,-0.0239880059970015,-91.0,0.5667166416791604,-378.0,4210.989010989011,2874.0,100.0,0.0,100.0,1.790960006478E12,-1.0,1.7909600061391562E12,4160.15625
214,8350674.0,8350674.0,254842.34619140625,8350674.0,3.184782608695652,1302.0,10.33695652173913,1960.0,0.8804347826086957,2172.0,-0.09729082472683559,-569.0,0.06885196826822318,1158.0,-0.07873072893279448,-58.0,-0.13193403298350825,11.0,-0.01649175412293853,-88.0,0.5712143928035982,-381.0,4210.989010989011,2874.0,100.0,0.0,100.0,1.790960006478E12,-1.0,1.7909600061586875E12,4179.6875
215,8351314.0,8351314.0,254861.87744140625,8351314.0,3.184782608695652,1301.0,10.347826086956522,1960.0,0.8478260869565217,2175.0,0.2086513994910953,-564.0,-0.009579404280796254,1138.0,0.3083370752881305,-83.0,-0.13493253373313344,17.0,-0.025487256371814093,-90.0,0.5727136431784108,-382.0,4209.523809523809,2873.0,100.0,0.0,100.0,1.790960006478E12,-1.0,1.7909600061782188E12,4199.21875
216,8351954.0,8351954.0,254881.40869140625,8351954.0,3.184782608695652,1301.0,10.347826086956522,1960.0,0.8804347826086957,2172.0,0.009280047897019906,-570.0,0.07873072893279405,1151.0,-0.22930698997156118,-48.0,-0.12743628185907047,17.0,-0.025487256371814093,-85.0,0.5772113943028485,-385.0,4210.989010989011,2874.0,100.0,0.0,100.0,1.790960006597E12,-1.0,1.79096000619775E12,4218.75
217,8352594.0,8352594.0,254900.93994140625,8352594.0,3.1739130434782608,1301.0,10.347826086956522,1961.0,0.858695652173913,2174.0,-0.1766202664271806,-570.0,0.0727436012572966,1163.0,0.06645711719802423,-67.0,-0.12143928035982009,21.0,-0.031484257871064465,-81.0,0.5787106446776612,-386.0,4209.523809523809,2873.0,100.0,0.0,100.0,1.790960006597E12,-1.0,1.7909600062172812E12,4238.28125
218,8353234.0,8353234.0,254920.47119140625,8353234.0,3.1739130434782608,1302.0,10.33695652173913,1961.0,0.8804347826086957,2172.0,0.31641969765005273,-571.0,0.08711270767849186,1131.0,-0.20805268672354435,-49.0,-0.1409295352323838,16.0,-0.0239880059970015,-94.0,0.5787106446776612,-386.0,4209.523809523809,2873.0,100.0,0.0,100.0,1.790960006597E12,-1.0,1.7909600062368125E12,4257.8125
219,8353874.0,8353874.0,254940.00244140625,8353874.0,3.1956521739130435,1302.0,10.33695652173913,1959.0,0.858695652173913,2174.0,0.40323304894476997,-576.0,0.1643466546924111,1125.0,-0.18619967070797783,-50.0,-0.12143928035982009,8.0,-0.01199400299850075,-81.0,0.5667166416791604,-378.0,4209.523809523809,2873.0,100.0,0.0,100.0,1.790960006597E12,-1.0,1.7909600062563438E12,4277.34375
220,8354514.0,8354514.0,254959.53369140625,8354514.0,3.184782608695652,1301.0,10.347826086956522,1960.0,0.858695652173913,2174.0,-8.980691513238352E-4,-576.0,0.16404729830863649,1151.0,-0.1335129471635982,-53.0,-0.13193403298350825,11.0,-0.01649175412293853,-88.0,0.5637181409295352,-376.0,4209.523809523809,2873.0,100.0,0.0,100.0,1.790960006597E12,-1.0,1.790960006275875E12,4296.875
221,8355154.0,8355154.0,254979.06494140625,8355154.0,3.1956521739130435,1299.0,10.369565217391305,1959.0,0.8804347826086957,2172.0,-0.16913635683280837,-576.0,0.16135309085466326,1162.0,0.23409669211195933,-77.0,-0.12443778110944527,23.0,-0.034482758620689655,-83.0,0.5742128935532234,-383.0,4209.523809523809,2873.0,100.0,0.0,100.0,1.790960006597E12,-1.0,1.7909600062954062E12,4316.40625
222,8355794.0,8355794.0,254998.59619140625,8355794.0,3.1630434782608696,1302.0,10.33695652173913,1962.0,0.8695652173913043,2173.0,0.06466097889537514,-577.0,0.17422541535698197,1147.0,0.025445292620865104,-64.0,-0.12743628185907047,25.0,-0.037481259370314844,-85.0,0.5652173913043478,-377.0,4209.523809523809,2873.0,100.0,0.0,100.0,1.790960006719E12,-1.0,1.7909600063149375E12,4335.9375
223,8356434.0,8356434.0,255018.12744140625,8356434.0,3.1739130434782608,1302.0,10.33695652173913,1961.0,0.8369565217391304,2176.0,-0.3768896871725798,-579.0,0.19667714414009868,1176.0,0.024846579853315336,-64.0,-0.136431784107946,21.0,-0.031484257871064465,-91.0,0.5817091454272864,-388.0,4209.523809523809,2873.0,100.0,0.0,100.0,1.790960006719E12,-1.0,1.7909600063344688E12,4355.46875
224,8357074.0,8357074.0,255037.65869140625,8357074.0,3.184782608695652,1300.0,10.358695652173912,1960.0,0.8913043478260869,2171.0,0.14309235144439283,-572.0,0.0901062715162397,1142.0,0.0871127076784912,-68.0,-0.15592203898050974,23.0,-0.034482758620689655,-104.0,0.5562218890554722,-371.0,4209.523809523809,2873.0,100.0,0.0,100.0,1.790960006719E12,-1.0,1.790960006354E12,4375.0
225,8357714.0,8357714.0,255057.18994140625,8357714.0,3.1739130434782608,1300.0,10.358695652173912,1961.0,0.9021739130434783,2170.0,0.03771890435563579,-565.0,-0.01975752132914173,1149.0,-0.16823828768148485,-51.0,-0.12743628185907047,10.0,-0.014992503748125937,-85.0,0.5697151424287856,-380.0,4209.523809523809,2873.0,100.0,0.0,100.0,1.790960006719E12,-1.0,1.7909600063735312E12,4394.53125
226,8358354.0,8358354.0,255076.72119140625,8358354.0,3.1956521739130435,1300.0,10.358695652173912,1959.0,0.9021739130434783,2170.0,0.02005687771291634,-563.0,-0.05059122885795624,1150.0,-0.04101182457715912,-59.0,-0.13193403298350825,13.0,-0.019490254872563718,-88.0,0.56071964017991,-374.0,4209.523809523809,2873.0,100.0,0.0,100.0,1.790960006719E12,-1.0,1.7909600063930625E12,4414.0625
227,8358994.0,8358994.0,255096.25244140625,8358994.0,3.184782608695652,1302.0,10.33695652173913,1960.0,0.8913043478260869,2171.0,-0.029037569226165107,-570.0,0.06166741505762556,1153.0,0.10896572369405781,-69.0,-0.13193403298350825,13.0,-0.019490254872563718,-88.0,0.5742128935532234,-383.0,4209.523809523809,2873.0,100.0,0.0,100.0,1.790960006719E12,-1.0,1.7909600064125938E12,4433.59375
228,8359634.0,8359634.0,255115.78369140625,8359634.0,3.1956521739130435,1302.0,10.33695652173913,1959.0,0.8260869565217391,2177.0,0.04669959586888109,-572.0,0.09040562790001432,1148.0,-0.19607843137254902,-49.0,-0.12893553223388304,13.0,-0.019490254872563718,-86.0,0.5562218890554722,-371.0,4209.523809523809,2873.0,100.0,0.0,100.0,1.790960006839E12,-1.0,1.790960006432125E12,4453.125
229,8360274.0,8360274.0,255135.31494140625,8360274.0,3.1739130434782608,1303.0,10.326086956521738,1961.0,0.8695652173913043,2173.0,0.21164496332884142,-573.0,0.10118245771591075,1137.0,-0.31612034126627747,-41.0,-0.1409295352323838,28.0,-0.041979010494752625,-94.0,0.5712143928035982,-381.0,4209.523809523809,2873.0,100.0,0.0,100.0,1.790960006839E12,-1.0,1.7909600064516562E12,4472.65625
230,8360914.0,8360914.0,255154.84619140625,8360914.0,3.184782608695652,1301.0,10.347826086956522,1960.0,0.8804347826086957,2172.0,-0.015566531956293695,-564.0,-0.037120191588084835,1152.0,-0.1335129471635982,-53.0,-0.1454272863568216,22.0,-0.03298350824587706,-97.0,0.5697151424287856,-380.0,4209.523809523809,2873.0,100.0,0.0,100.0,1.790960006839E12,-1.0,1.7909600064711875E12,4492.1875
231,8361554.0,8361554.0,255174.37744140625,8361554.0,3.1956521739130435,1300.0,10.358695652173912,1959.0,0.8695652173913043,2173.0,0.1676395749139353,-573.0,0.0966921119592881,1140.0,0.3149229157311779,-82.0,-0.14392803598200898,18.0,-0.026986506746626684,-96.0,0.5862068965517241,-391.0,4209.523809523809,2873.0,100.0,0.0,100.0,1.790960006839E12,-1.0,1.7909600064907188E12,4511.71875
232,8362194.0,8362194.0,255193.90869140625,8362194.0,3.184782608695652,1300.0,10.358695652173912,1960.0,0.8695652173913043,2173.0,-0.019158808561592508,-566.0,-0.009878760664570866,1152.0,0.23738961233348296,-77.0,-0.1454272863568216,17.0,-0.025487256371814093,-97.0,0.5622188905547226,-375.0,4209.523809523809,2873.0,100.0,0.0,100.0,1.790960006839E12,-1.0,1.79096000651025E12,4531.25
233,8362834.0,8362834.0,255213.43994140625,8362834.0,3.1739130434782608,1301.0,10.347826086956522,1961.0,0.8804347826086957,2172.0,-0.00838197874569607,-560.0,-0.10357730878610938,1151.0,0.08082622361921872,-67.0,-0.136431784107946,18.0,-0.026986506746626684,-91.0,0.5712143928035982,-381.0,4209.523809523809,2873.0,100.0,0.0,100.0,1.790960006839E12,-1.0,1.7909600065297812E12,4550.78125
234,8363474.0,8363474.0,255232.97119140625,8363474.0,3.184782608695652,1300.0,10.358695652173912,1960.0,0.8369565217391304,2176.0,0.06825325550067396,-562.0,-0.072444244873522,1146.0,0.16734021853016015,-73.0,-0.13793103448275862,22.0,-0.03298350824587706,-92.0,0.5622188905547226,-375.0,4209.523809523809,2873.0,100.0,0.0,100.0,1.790960006953E12,-1.0,1.7909600065493125E12,4570.3125
235,8364114.0,8364114.0,255252.50244140625,8364114.0,3.1956521739130435,1300.0,10.358695652173912,1959.0,0.8913043478260869,2171.0,0.01466846280496986,-576.0,0.14279299506061996,1149.0,0.07573716509504565,-67.0,-0.13043478260869565,17.0,-0.025487256371814093,-87.0,0.5727136431784108,-382.0,4209.523809523809,2873.0,100.0,0.0,100.0,1.790960006953E12,-1.0,1.7909600065688438E12,4589.84375
236,8364754.0,8364754.0,255272.03369140625,8364754.0,3.184782608695652,1301.0,10.347826086956522,1960.0,0.8913043478260869,2171.0,0.15327046849274006,-568.0,0.01826073941026867,1140.0,0.07394102679239635,-67.0,-0.13043478260869565,15.0,-0.022488755622188904,-87.0,0.5727136431784108,-382.0,4209.523809523809,2873.0,100.0,0.0,100.0,1.790960006953E12,-1.0,1.790960006588375E12,4609.375
237,8365394.0,8365394.0,255291.56494140625,8365394.0,3.1630434782608696,1302.0,10.33695652173913,1962.0,0.8695652173913043,2173.0,-0.0535847926957041,-568.0,0.017662026642717713,1153.0,-0.24786708576560393,-46.0,-0.136431784107946,26.0,-0.038980509745127435,-91.0,0.5742128935532234,-383.0,4209.523809523809,2873.0,100.0,0.0,100.0,1.790960006953E12,-1.0,1.7909600066079062E12,4628.90625
238,8366034.0,8366034.0,255311.09619140625,8366034.0,3.184782608695652,1301.0,10.347826086956522,1960.0,0.8478260869565217,2175.0,0.11495285136955505,-566.0,-0.009280047897021642,1142.0,-0.07753330339769494,-57.0,-0.14392803598200898,16.0,-0.0239880059970015,-96.0,0.5742128935532234,-383.0,4209.523809523809,2873.0,100.0,0.0,100.0,1.790960006953E12,-1.0,1.7909600066274375E12,4648.4375
239,8366674.0,8366674.0,255330.62744140625,8366674.0,3.1739130434782608,1301.0,10.347826086956522,1961.0,0.8695652173913043,2173.0,0.14309235144439283,-579.0,0.1844035324053292,1140.0,0.046699595868881956,-65.0,-0.12443778110944527,28.0,-0.041979010494752625,-83.0,0.5817091454272864,-388.0,4209.523809523809,2873.0,100.0,0.0,100.0,1.790960006953E12,-1.0,1.7909600066469688E12,4667.96875
240,8367314.0,8367314.0,255350.15869140625,8367314.0,3.1956521739130435,1301.0,10.347826086956522,1959.0,0.858695652173913,2174.0,0.14309235144439283,-574.0,0.09998503218081058,1140.0,0.1505762610387666,-72.0,-0.1409295352323838,13.0,-0.019490254872563718,-94.0,0.5787106446776612,-386.0,4209.523809523809,2873.0,100.0,0.0,100.0,1.790960007071E12,-1.0,1.7909600066665E12,4687.5
241,8367954.0,8367954.0,255369.68994140625,8367954.0,3.1956521739130435,1301.0,10.347826086956522,1959.0,0.8478260869565217,2175.0,0.0029935638377495888,-568.0,0.002694207453973241,1149.0,0.13171680886094891,-71.0,-0.12443778110944527,11.0,-0.01649175412293853,-83.0,0.5892053973013494,-393.0,4209.523809523809,2873.0,100.0,0.0,100.0,1.790960007071E12,-1.0,1.7909600066860312E12,4707.03125
242,8368594.0,8368594.0,255389.22119140625,8368594.0,3.184782608695652,1302.0,10.33695652173913,1960.0,0.8478260869565217,2175.0,-0.05897320760365058,-563.0,-0.07723394701391925,1153.0,0.1433917078281694,-72.0,-0.1184407796101949,30.0,-0.04497751124437781,-79.0,0.5727136431784108,-382.0,4209.523809523809,2873.0,100.0,0.0,100.0,1.790960007071E12,-1.0,1.7909600067055625E12,4726.5625
243,8369234.0,8369234.0,255408.75244140625,8369234.0,3.1739130434782608,1301.0,10.347826086956522,1961.0,0.8804347826086957,2172.0,0.09280047897021294,-571.0,0.041311180960934606,1143.0,0.08920820236491543,-68.0,-0.14392803598200898,18.0,-0.026986506746626684,-96.0,0.5862068965517241,-391.0,4209.523809523809,2873.0,100.0,0.0,100.0,1.790960007071E12,-1.0,1.7909600067250938E12,4746.09375
244,8369874.0,8369874.0,255428.28369140625,8369874.0,3.184782608695652,1299.0,10.369565217391305,1960.0,0.858695652173913,2174.0,-0.09280047897021294,-560.0,-0.12722646310432628,1155.0,0.03592276605298606,-65.0,-0.12293853073463268,17.0,-0.025487256371814093,-82.0,0.5697151424287856,-380.0,4209.523809523809,2873.0,100.0,0.0,100.0,1.790960007071E12,-1.0,1.790960006744625E12,4765.625
245,8370514.0,8370514.0,255447.81494140625,8370514.0,3.1956521739130435,1301.0,10.347826086956522,1959.0,0.8804347826086957,2172.0,-0.20326298458314535,-575.0,0.09699146834306271,1162.0,-0.12303547373147737,-55.0,-0.12743628185907047,22.0,-0.03298350824587706,-85.0,0.5772113943028485,-385.0,4209.523809523809,2873.0,100.0,0.0,100.0,1.790960007071E12,-1.0,1.7909600067641562E12,4785.15625
246,8371154.0,8371154.0,255467.34619140625,8371154.0,3.184782608695652,1301.0,10.347826086956522,1960.0,0.8913043478260869,2171.0,-0.051189941625503735,-555.0,-0.20835204310731895,1152.0,0.18829516539440205,-75.0,-0.1409295352323838,18.0,-0.026986506746626684,-94.0,0.5712143928035982,-381.0,4210.989010989011,2874.0,100.0,0.0,100.0,1.790960007199E12,-1.0,1.7909600067836875E12,4804.6875
247,8371794.0,8371794.0,255486.87744140625,8371794.0,3.184782608695652,1301.0,10.347826086956522,1960.0,0.858695652173913,2174.0,-0.02125430324801826,-572.0,0.05268672354438026,1150.0,0.0032929202215237663,-63.0,-0.13193403298350825,26.0,-0.038980509745127435,-88.0,0.5667166416791604,-378.0,4210.989010989011,2874.0,100.0,0.0,100.0,1.790960007199E12,-1.0,1.7909600068032188E12,4824.21875
248,8372434.0,8372434.0,255506.40869140625,8372434.0,3.2065217391304346,1304.0,10.315217391304348,1958.0,0.8478260869565217,2175.0,-0.2086513994910953,-567.0,-0.03083370752881278,1162.0,-0.01975752132914238,-62.0,-0.11394302848575712,11.0,-0.01649175412293853,-76.0,0.5667166416791604,-378.0,4209.523809523809,2873.0,100.0,0.0,100.0,1.790960007199E12,-1.0,1.79096000682275E12,4843.75
249,8373074.0,8373074.0,255525.93994140625,8373074.0,3.1739130434782608,1301.0,10.347826086956522,1961.0,0.8478260869565217,2175.0,-0.14309235144439283,-567.0,-0.030534351145038167,1158.0,0.040712468193384185,-66.0,-0.136431784107946,28.0,-0.041979010494752625,-91.0,0.5787106446776612,-386.0,4209.523809523809,2873.0,100.0,0.0,100.0,1.790960007199E12,-1.0,1.7909600068422812E12,4863.28125
250,8373714.0,8373714.0,255545.47119140625,8373714.0,3.1956521739130435,1302.0,10.33695652173913,1959.0,0.8695652173913043,2173.0,0.10687022900763359,-563.0,-0.09609339919173715,1142.0,0.056578356533453035,-67.0,-0.1184407796101949,20.0,-0.029985007496251874,-79.0,0.5772113943028485,-385.0,4209.523809523809,2873.0,100.0,0.0,100.0,1.790960007199E12,-1.0,1.7909600068618125E12,4882.8125
251,8374354.0,8374354.0,255565.00244140625,8374354.0,3.184782608695652,1301.0,10.347826086956522,1960.0,0.8804347826086957,2172.0,0.16225116000598883,-569.0,-0.004490345756622647,1138.0,-0.12932195779074987,-55.0,-0.13193403298350825,18.0,-0.026986506746626684,-88.0,0.5787106446776612,-386.0,4209.523809523809,2873.0,100.0,0.0,100.0,1.790960007199E12,-1.0,1.7909600068813438E12,4902.34375
252,8374994.0,8374994.0,255584.53369140625,8374994.0,3.1739130434782608,1301.0,10.347826086956522,1961.0,0.8695652173913043,2173.0,0.1415955695255198,-566.0,-0.05059122885795624,1139.0,-0.1389013620715462,-54.0,-0.12293853073463268,10.0,-0.014992503748125937,-82.0,0.5727136431784108,-382.0,4209.523809523809,2873.0,100.0,0.0,100.0,1.790960007314E12,-1.0,1.790960006900875E12,4921.875
253,8375634.0,8375634.0,255604.06494140625,8375634.0,3.1630434782608696,1300.0,10.358695652173912,1962.0,0.8695652173913043,2173.0,-0.16584343661128417,-575.0,0.08411914384074226,1159.0,0.12004190989372843,-71.0,-0.12293853073463268,25.0,-0.037481259370314844,-82.0,0.5697151424287856,-380.0,4209.523809523809,2873.0,100.0,0.0,100.0,1.790960007314E12,-1.0,1.7909600069204062E12,4941.40625
254,8376274.0,8376274.0,255623.59619140625,8376274.0,3.2065217391304346,1302.0,10.33695652173913,1958.0,0.858695652173913,2174.0,-0.10327795240233477,-571.0,0.022152372399342094,1155.0,-0.1442897769794941,-54.0,-0.13043478260869565,12.0,-0.017991004497751123,-87.0,0.5697151424287856,-380.0,4209.523809523809,2873.0,100.0,0.0,100.0,1.790960007314E12,-1.0,1.7909600069399375E12,4960.9375
255,8376914.0,8376914.0,255643.12744140625,8376914.0,3.184782608695652,1299.0,10.369565217391305,1960.0,0.858695652173913,2174.0,-0.14728334081724434,-582.0,0.18949259092950105,1158.0,-0.006286484059272596,-63.0,-0.1184407796101949,17.0,-0.025487256371814093,-79.0,0.5802098950524738,-387.0,4208.058608058608,2872.0,100.0,0.0,100.0,1.790960007314E12,-1.0,1.7909600069594688E12,4980.46875
256,8377554.0,8377554.0,255662.65869140625,8377554.0,3.1630434782608696,1300.0,10.358695652173912,1962.0,0.8913043478260869,2171.0,0.0032929202215242004,-560.0,-0.15297111210896544,1148.0,0.28349049543481514,-82.0,-0.11544227886056971,20.0,-0.029985007496251874,-77.0,0.5802098950524738,-387.0,4209.523809523809,2873.0,100.0,0.0,100.0,1.790960007314E12,-1.0,1.790960006979E12,5000.0
257,8378194.0,8378194.0,255682.18994140625,8378194.0,3.1630434782608696,1301.0,10.347826086956522,1962.0,0.8804347826086957,2172.0,-0.25774584643017673,-555.0,-0.22691213890136222,1165.0,0.09459661727286332,-70.0,-0.12443778110944527,21.0,-0.031484257871064465,-83.0,0.56071964017991,-374.0,4209.523809523809,2873.0,100.0,0.0,100.0,1.790960007314E12,-1.0,1.7909600069985312E12,5019.53125
258,8378834.0,8378834.0,255701.72119140625,8378834.0,3.1739130434782608,1301.0,10.347826086956522,1961.0,0.8913043478260869,2171.0,0.1960784313725477,-590.0,0.3152222721149525,1136.0,0.1505762610387666,-74.0,-0.12743628185907047,20.0,-0.029985007496251874,-85.0,0.5847076461769115,-390.0,4209.523809523809,2873.0,100.0,0.0,100.0,1.790960007437E12,-1.0,1.7909600070180625E12,5039.0625
259,8379474.0,8379474.0,255721.25244140625,8379474.0,3.1956521739130435,1302.0,10.33695652173913,1959.0,0.9021739130434783,2170.0,-0.20086813351294844,-575.0,0.08232300553809285,1162.0,-0.12722646310432562,-56.0,-0.13493253373313344,15.0,-0.022488755622188904,-90.0,0.5802098950524738,-387.0,4209.523809523809,2873.0,100.0,0.0,100.0,1.790960007437E12,-1.0,1.7909600070375938E12,5058.59375
260,8380114.0,8380114.0,255740.78369140625,8380114.0,3.184782608695652,1302.0,10.33695652173913,1960.0,0.8695652173913043,2173.0,0.2652297560245455,-568.0,-0.022451728783116708,1132.0,0.1041760215536597,-71.0,-0.12743628185907047,20.0,-0.029985007496251874,-85.0,0.5652173913043478,-377.0,4209.523809523809,2873.0,100.0,0.0,100.0,1.790960007437E12,-1.0,1.790960007057125E12,5078.125
261,8380754.0,8380754.0,255760.31494140625,8380754.0,3.1956521739130435,1301.0,10.347826086956522,1959.0,0.858695652173913,2174.0,-0.10327795240233477,-577.0,0.1137554258344566,1156.0,0.11734770243975454,-72.0,-0.13043478260869565,15.0,-0.022488755622188904,-87.0,0.5622188905547226,-375.0,4209.523809523809,2873.0,100.0,0.0,100.0,1.790960007437E12,-1.0,1.7909600070766562E12,5097.65625
262,8381394.0,8381394.0,255779.84619140625,8381394.0,3.1630434782608696,1302.0,10.33695652173913,1962.0,0.9021739130434783,2170.0,0.18739709624307704,-557.0,-0.19428229306990005,1137.0,-0.06585840443047446,-60.0,-0.13193403298350825,13.0,-0.019490254872563718,-88.0,0.5667166416791604,-378.0,4209.523809523809,2873.0,100.0,0.0,100.0,1.790960007437E12,-1.0,1.7909600070961875E12,5117.1875
263,8382034.0,8382034.0,255799.37744140625,8382034.0,3.184782608695652,1301.0,10.347826086956522,1960.0,0.858695652173913,2174.0,-0.15716210148181348,-568.0,-0.02305044155066593,1159.0,-0.2625355485705734,-47.0,-0.13043478260869565,25.0,-0.037481259370314844,-87.0,0.5697151424287856,-380.0,4209.523809523809,2873.0,100.0,0.0,100.0,1.790960007437E12,-1.0,1.7909600071157188E12,5136.71875
264,8382674.0,8382674.0,255818.90869140625,8382674.0,3.2065217391304346,1301.0,10.347826086956522,1958.0,0.8478260869565217,2175.0,0.10657087262385898,-572.0,0.03921568627451059,1142.0,-0.3310881604550217,-42.0,-0.136431784107946,18.0,-0.026986506746626684,-91.0,0.56071964017991,-374.0,4209.523809523809,2873.0,100.0,0.0,100.0,1.790960007617E12,-1.0,1.79096000713525E12,5156.25
265,8383314.0,8383314.0,255838.43994140625,8383314.0,3.1739130434782608,1299.0,10.369565217391305,1961.0,0.8695652173913043,2173.0,-0.24457416554407996,-580.0,0.16015566531956307,1165.0,-0.136805867385122,-54.0,-0.13043478260869565,27.0,-0.04047976011994003,-87.0,0.5727136431784108,-382.0,4209.523809523809,2873.0,100.0,0.0,100.0,1.790960007617E12,-1.0,1.7909600071547812E12,5175.78125
266,8383954.0,8383954.0,255857.97119140625,8383954.0,3.1630434782608696,1302.0,10.33695652173913,1962.0,0.858695652173913,2174.0,0.18500224517287667,-562.0,-0.11794641520730463,1137.0,0.0017961383026492976,-63.0,-0.12893553223388304,31.0,-0.046476761619190406,-86.0,0.5712143928035982,-381.0,4209.523809523809,2873.0,100.0,0.0,100.0,1.790960007617E12,-1.0,1.7909600071743125E12,5195.3125
267,8384594.0,8384594.0,255877.50244140625,8384594.0,3.184782608695652,1300.0,10.358695652173912,1960.0,0.8695652173913043,2173.0,-0.44125130968418036,-568.0,-0.025744649004639172,1178.0,-0.038018260739410295,-60.0,-0.13193403298350825,13.0,-0.019490254872563718,-88.0,0.5562218890554722,-371.0,4209.523809523809,2873.0,100.0,0.0,100.0,1.790960007617E12,-1.0,1.7909600071938438E12,5214.84375
268,8385234.0,8385234.0,255897.03369140625,8385234.0,3.1739130434782608,1301.0,10.347826086956522,1961.0,0.858695652173913,2174.0,0.20805268672354607,-571.0,0.020655590480467303,1136.0,0.11106121838048194,-70.0,-0.12893553223388304,13.0,-0.019490254872563718,-86.0,0.5742128935532234,-383.0,4209.523809523809,2873.0,100.0,0.0,100.0,1.790960007617E12,-1.0,1.790960007213375E12,5234.375
269,8385874.0,8385874.0,255916.56494140625,8385874.0,3.1630434782608696,1301.0,10.347826086956522,1962.0,0.8804347826086957,2172.0,0.09309983535398755,-549.0,-0.31552162849872717,1143.0,-0.1188444843586289,-55.0,-0.13793103448275862,20.0,-0.029985007496251874,-92.0,0.5697151424287856,-380.0,4209.523809523809,2873.0,100.0,0.0,100.0,1.790960007617E12,-1.0,1.7909600072329062E12,5253.90625
270,8386514.0,8386514.0,255936.09619140625,8386514.0,3.184782608695652,1302.0,10.33695652173913,1960.0,0.8369565217391304,2176.0,-0.010178117048347212,-570.0,0.011674898967220272,1150.0,0.19997006436162254,-76.0,-0.13193403298350825,18.0,-0.026986506746626684,-88.0,0.5742128935532234,-383.0,4208.058608058608,2872.0,100.0,0.0,100.0,1.790960007739E12,-1.0,1.7909600072524375E12,5273.4375
271,8387154.0,8387154.0,255955.62744140625,8387154.0,3.1739130434782608,1301.0,10.347826086956522,1961.0,0.8695652173913043,2173.0,0.2110462505612922,-558.0,-0.16973506960035933,1136.0,-0.03682083520431076,-61.0,-0.12743628185907047,22.0,-0.03298350824587706,-85.0,0.5652173913043478,-377.0,4209.523809523809,2873.0,100.0,0.0,100.0,1.790960007739E12,-1.0,1.7909600072719688E12,5292.96875
272,8387794.0,8387794.0,255975.15869140625,8387794.0,3.184782608695652,1301.0,10.347826086956522,1960.0,0.8695652173913043,2173.0,0.11495285136955505,-563.0,-0.08801077682981569,1142.0,-0.039215686274509824,-61.0,-0.12743628185907047,20.0,-0.029985007496251874,-85.0,0.5802098950524738,-387.0,4209.523809523809,2873.0,100.0,0.0,100.0,1.790960007739E12,-1.0,1.7909600072915E12,5312.5
273,8388434.0,8388434.0,255994.68994140625,8388434.0,3.184782608695652,1302.0,10.33695652173913,1960.0,0.8478260869565217,2175.0,-0.24217931447387958,-563.0,-0.08411914384074226,1165.0,0.0571770693010028,-67.0,-0.1169415292353823,13.0,-0.019490254872563718,-78.0,0.5667166416791604,-378.0,4210.989010989011,2874.0,100.0,0.0,100.0,1.790960007739E12,-1.0,1.7909600073110312E12,5332.03125
274,8389074.0,8389074.0,256014.22119140625,8389074.0,3.1956521739130435,1301.0,10.347826086956522,1959.0,0.8478260869565217,2175.0,0.0380182607394104,-568.0,-0.003592276605298812,1147.0,0.04101182457715912,-66.0,-0.13043478260869565,22.0,-0.03298350824587706,-87.0,0.5727136431784108,-382.0,4209.523809523809,2873.0,100.0,0.0,100.0,1.790960007739E12,-1.0,1.7909600073305625E12,5351.5625
275,8389714.0,8389714.0,256033.75244140625,8389714.0,3.1956521739130435,1300.0,10.358695652173912,1959.0,0.8695652173913043,2173.0,0.014069750037420637,-572.0,0.060769345906301724,1148.0,-0.020655590480466977,-62.0,-0.1409295352323838,16.0,-0.0239880059970015,-94.0,0.5637181409295352,-376.0,4209.523809523809,2873.0,100.0,0.0,100.0,1.790960007739E12,-1.0,1.7909600073500938E12,5371.09375
276,8390354.0,8390354.0,256053.28369140625,8390354.0,3.1739130434782608,1302.0,10.33695652173913,1961.0,0.8695652173913043,2173.0,-0.24367609639275611,-560.0,-0.12243676096392728,1165.0,0.026942074539739572,-65.0,-0.13043478260869565,12.0,-0.017991004497751123,-87.0,0.5727136431784108,-382.0,4210.989010989011,2874.0,100.0,0.0,100.0,1.790960007855E12,-1.0,1.790960007369625E12,5390.625
277,8390994.0,8390994.0,256072.81494140625,8390994.0,3.1956521739130435,1302.0,10.33695652173913,1959.0,0.8369565217391304,2176.0,-0.16255051638976342,-555.0,-0.1972758569076479,1160.0,-0.08411914384074237,-58.0,-0.12293853073463268,12.0,-0.017991004497751123,-82.0,0.5772113943028485,-385.0,4209.523809523809,2873.0,100.0,0.0,100.0,1.790960007855E12,-1.0,1.7909600073891562E12,5410.15625
278,8391634.0,8391634.0,256092.34619140625,8391634.0,3.1630434782608696,1301.0,10.347826086956522,1962.0,0.9021739130434783,2170.0,-0.06795389911689935,-591.0,0.3547373147732377,1154.0,-0.02275108516689121,-62.0,-0.13193403298350825,21.0,-0.031484257871064465,-88.0,0.5712143928035982,-381.0,4210.989010989011,2874.0,100.0,0.0,100.0,1.790960007855E12,-1.0,1.7909600074086875E12,5429.6875
279,8392274.0,8392274.0,256111.87744140625,8392274.0,3.184782608695652,1301.0,10.347826086956522,1960.0,0.8695652173913043,2173.0,0.1613530908546615,-564.0,-0.06376290974404958,1139.0,0.17781769196228112,-75.0,-0.14392803598200898,18.0,-0.026986506746626684,-96.0,0.5712143928035982,-381.0,4210.989010989011,2874.0,100.0,0.0,100.0,1.790960007855E12,-1.0,1.7909600074282188E12,5449.21875
280,8392914.0,8392914.0,256131.40869140625,8392914.0,3.1739130434782608,1302.0,10.33695652173913,1961.0,0.8804347826086957,2172.0,0.21972758569076634,-567.0,-0.015566531956293695,1135.0,0.09369854812153873,-70.0,-0.136431784107946,13.0,-0.019490254872563718,-91.0,0.5667166416791604,-378.0,4209.523809523809,2873.0,100.0,0.0,100.0,1.790960007855E12,-1.0,1.79096000744775E12,5468.75
281,8393554.0,8393554.0,256150.93994140625,8393554.0,3.184782608695652,1299.0,10.369565217391305,1960.0,0.8804347826086957,2172.0,-0.13201616524472526,-578.0,0.15416853764406563,1158.0,-0.3119293518934292,-44.0,-0.12893553223388304,16.0,-0.0239880059970015,-86.0,0.5742128935532234,-383.0,4209.523809523809,2873.0,100.0,0.0,100.0,1.790960007855E12,-1.0,1.7909600074672812E12,5488.28125
282,8394194.0,8394194.0,256170.47119140625,8394194.0,3.1739130434782608,1304.0,10.315217391304348,1961.0,0.8804347826086957,2172.0,0.12932195779075029,-576.0,0.11944319712617943,1141.0,-0.27870079329441694,-46.0,-0.13793103448275862,17.0,-0.025487256371814093,-92.0,0.5727136431784108,-382.0,4209.523809523809,2873.0,100.0,0.0,100.0,1.790960007979E12,-1.0,1.7909600074868125E12,5507.8125
283,8394834.0,8394834.0,256190.00244140625,8394834.0,3.1739130434782608,1302.0,10.33695652173913,1961.0,0.858695652173913,2174.0,0.022751085166891317,-565.0,-0.04939380332285606,1148.0,-0.17632091004340664,-52.0,-0.12143928035982009,26.0,-0.038980509745127435,-81.0,0.5787106446776612,-386.0,4210.989010989011,2874.0,100.0,0.0,100.0,1.790960007979E12,-1.0,1.7909600075063438E12,5527.34375
284,8395474.0,8395474.0,256209.53369140625,8395474.0,3.2065217391304346,1300.0,10.358695652173912,1958.0,0.8695652173913043,2173.0,-0.054782218230802544,-555.0,-0.20176620266427228,1153.0,0.04490345756623255,-66.0,-0.12743628185907047,17.0,-0.025487256371814093,-85.0,0.5697151424287856,-380.0,4210.989010989011,2874.0,100.0,0.0,100.0,1.790960007979E12,-1.0,1.790960007525875E12,5546.875
285,8396114.0,8396114.0,256229.06494140625,8396114.0,3.1739130434782608,1301.0,10.347826086956522,1961.0,0.8478260869565217,2175.0,-0.23738961233348232,-569.0,0.013471037269869677,1165.0,-0.1532704684927406,-53.0,-0.136431784107946,26.0,-0.038980509745127435,-91.0,0.5562218890554722,-371.0,4209.523809523809,2873.0,100.0,0.0,100.0,1.790960007979E12,-1.0,1.7909600075454062E12,5566.40625
286,8396754.0,8396754.0,256248.59619140625,8396754.0,3.1739130434782608,1302.0,10.33695652173913,1961.0,0.858695652173913,2174.0,0.14997754827121584,-558.0,-0.15656338871426426,1140.0,0.2649303996407723,-80.0,-0.13043478260869565,12.0,-0.017991004497751123,-87.0,0.5772113943028485,-385.0,4209.523809523809,2873.0,100.0,0.0,100.0,1.790960007979E12,-1.0,1.7909600075649375E12,5585.9375
287,8397394.0,8397394.0,256268.12744140625,8397394.0,3.1956521739130435,1301.0,10.347826086956522,1959.0,0.8478260869565217,2175.0,0.17781769196228253,-568.0,0.0014967819188747944,1138.0,-0.18170932495135453,-51.0,-0.1184407796101949,7.0,-0.010494752623688156,-79.0,0.5622188905547226,-375.0,4209.523809523809,2873.0,100.0,0.0,100.0,1.790960007979E12,-1.0,1.7909600075844688E12,5605.46875
288,8398034.0,8398034.0,256287.65869140625,8398034.0,3.184782608695652,1302.0,10.33695652173913,1960.0,0.8804347826086957,2172.0,0.08561592575961532,-570.0,0.03203113306391296,1144.0,-0.1921867983834755,-50.0,-0.12893553223388304,13.0,-0.019490254872563718,-86.0,0.5787106446776612,-386.0,4210.989010989011,2874.0,100.0,0.0,100.0,1.790960008099E12,-1.0,1.790960007604E12,5625.0
289,8398674.0,8398674.0,256307.18994140625,8398674.0,3.184782608695652,1301.0,10.347826086956522,1960.0,0.8478260869565217,2175.0,-0.11555156413710427,-583.0,0.2299057027391101,1157.0,0.11195928753180664,-70.0,-0.136431784107946,23.0,-0.034482758620689655,-91.0,0.5712143928035982,-381.0,4209.523809523809,2873.0,100.0,0.0,100.0,1.790960008099E12,-1.0,1.7909600076235312E12,5644.53125
290,8399314.0,8399314.0,256326.72119140625,8399314.0,3.1956521739130435,1300.0,10.358695652173912,1959.0,0.8695652173913043,2173.0,0.1484807663523428,-546.0,-0.34006885196826786,1140.0,-0.12093997904505313,-55.0,-0.12743628185907047,12.0,-0.017991004497751123,-85.0,0.5802098950524738,-387.0,4209.523809523809,2873.0,100.0,0.0,100.0,1.790960008099E12,-1.0,1.7909600076430625E12,5664.0625
291,8399954.0,8399954.0,256346.25244140625,8399954.0,3.184782608695652,1299.0,10.369565217391305,1960.0,0.8695652173913043,2173.0,0.11794641520730463,-563.0,-0.07064810657087259,1142.0,-0.011076186199670723,-62.0,-0.12293853073463268,20.0,-0.029985007496251874,-82.0,0.5772113943028485,-385.0,4210.989010989011,2874.0,100.0,0.0,100.0,1.790960008099E12,-1.0,1.7909600076625938E12,5683.59375
292,8400594.0,8400594.0,256365.78369140625,8400594.0,3.1739130434782608,1300.0,10.358695652173912,1961.0,0.8478260869565217,2175.0,-0.12572968118545147,-556.0,-0.17422541535698197,1158.0,-0.13022002694207457,-54.0,-0.14392803598200898,21.0,-0.031484257871064465,-96.0,0.5667166416791604,-378.0,4210.989010989011,2874.0,100.0,0.0,100.0,1.790960008099E12,-1.0,1.790960007682125E12,5703.125
293,8401234.0,8401234.0,256385.31494140625,8401234.0,3.1956521739130435,1301.0,10.347826086956522,1959.0,0.8695652173913043,2173.0,0.19757521329142425,-558.0,-0.140098787606645,1137.0,-0.09459661727286332,-56.0,-0.136431784107946,16.0,-0.0239880059970015,-91.0,0.5742128935532234,-383.0,4209.523809523809,2873.0,100.0,0.0,100.0,1.790960008099E12,-1.0,1.7909600077016562E12,5722.65625
294,8401874.0,8401874.0,256404.84619140625,8401874.0,3.1630434782608696,1299.0,10.369565217391305,1962.0,0.8369565217391304,2176.0,0.024846579853317074,-567.0,-0.0011974255351001825,1148.0,0.03233048944768747,-64.0,-0.13043478260869565,30.0,-0.04497751124437781,-87.0,0.5802098950524738,-387.0,4209.523809523809,2873.0,100.0,0.0,100.0,1.790960008218E12,-1.0,1.7909600077211875E12,5742.1875
295,8402514.0,8402514.0,256424.37744140625,8402514.0,3.217391304347826,1301.0,10.347826086956522,1957.0,0.9021739130434783,2170.0,0.02634336177219013,-552.0,-0.22900763358778625,1148.0,0.0029935638377488294,-62.0,-0.12743628185907047,20.0,-0.029985007496251874,-85.0,0.5652173913043478,-377.0,4209.523809523809,2873.0,100.0,0.0,100.0,1.790960008218E12,-1.0,1.7909600077407188E12,5761.71875
296,8403154.0,8403154.0,256443.90869140625,8403154.0,3.184782608695652,1302.0,10.33695652173913,1960.0,0.8478260869565217,2175.0,-0.006286484059273789,-568.0,0.017662026642717713,1150.0,0.1260290375692262,-70.0,-0.13193403298350825,23.0,-0.034482758620689655,-88.0,0.5712143928035982,-381.0,4209.523809523809,2873.0,100.0,0.0,100.0,1.790960008218E12,-1.0,1.79096000776025E12,5781.25
297,8403794.0,8403794.0,256463.43994140625,8403794.0,3.184782608695652,1302.0,10.33695652173913,1960.0,0.858695652173913,2174.0,-0.11674898967220619,-550.0,-0.25505163897620176,1157.0,-0.07693459063014518,-57.0,-0.1409295352323838,28.0,-0.041979010494752625,-94.0,0.5862068965517241,-391.0,4210.989010989011,2874.0,100.0,0.0,100.0,1.790960008218E12,-1.0,1.7909600077797812E12,5800.78125
298,8404434.0,8404434.0,256482.97119140625,8404434.0,3.1956521739130435,1301.0,10.347826086956522,1959.0,0.8369565217391304,2176.0,-0.20685526118844416,-565.0,-0.024547223469540726,1163.0,-0.07154617572219729,-57.0,-0.12893553223388304,16.0,-0.0239880059970015,-86.0,0.5787106446776612,-386.0,4209.523809523809,2873.0,100.0,0.0,100.0,1.790960008218E12,-1.0,1.7909600077993125E12,5820.3125
299,8405074.0,8405074.0,256502.50244140625,8405074.0,3.184782608695652,1301.0,10.347826086956522,1960.0,0.8695652173913043,2173.0,-0.2182308037718898,-574.0,0.11495285136955505,1164.0,-0.17662026642718157,-50.0,-0.12743628185907047,10.0,-0.014992503748125937,-85.0,0.5652173913043478,-377.0,4209.523809523809,2873.0,100.0,0.0,100.0,1.790960008218E12,-1.0,1.7909600078188438E12,5839.84375
300,8405714.0,8405714.0,256522.03369140625,8405714.0,3.1630434782608696,1302.0,10.33695652173913,1962.0,0.858695652173913,2174.0,0.05717706930100291,-559.0,-0.11615027690465522,1146.0,-0.05089058524173031,-58.0,-0.12143928035982009,11.0,-0.01649175412293853,-81.0,0.5862068965517241,-391.0,4209.523809523809,2873.0,100.0,0.0,100.0,1.790960008338E12,-1.0,1.790960007838375E12,5859.375
301,8406354.0,8406354.0,256541.56494140625,8406354.0,3.184782608695652,1299.0,10.369565217391305,1960.0,0.8478260869565217,2175.0,0.08411914384074226,-584.0,0.2679239634785205,1144.0,0.0889088459811405,-67.0,-0.12143928035982009,13.0,-0.019490254872563718,-81.0,0.5637181409295352,-376.0,4209.523809523809,2873.0,100.0,0.0,100.0,1.790960008338E12,-1.0,1.7909600078579062E12,5878.90625
302,8406994.0,8406994.0,256561.09619140625,8406994.0,3.152173913043478,1302.0,10.33695652173913,1963.0,0.8695652173913043,2173.0,0.19158808561592508,-572.0,0.07843137254901944,1137.0,-0.033228558599012165,-59.0,-0.1409295352323838,8.0,-0.01199400299850075,-94.0,0.5637181409295352,-376.0,4209.523809523809,2873.0,100.0,0.0,100.0,1.790960008338E12,-1.0,1.7909600078774375E12,5898.4375
303,8407634.0,8407634.0,256580.62744140625,8407634.0,3.1630434782608696,1302.0,10.33695652173913,1962.0,0.858695652173913,2174.0,0.1607543780871123,-571.0,0.062266127825176515,1139.0,0.0571770693010028,-65.0,-0.13043478260869565,17.0,-0.025487256371814093,-87.0,0.5802098950524738,-387.0,4209.523809523809,2873.0,100.0,0.0,100.0,1.790960008338E12,-1.0,1.7909600078969688E12,5917.96875
304,8408274.0,8408274.0,256600.15869140625,8408274.0,3.184782608695652,1302.0,10.33695652173913,1960.0,0.8804347826086957,2172.0,0.1454872025145932,-558.0,-0.13770393653644636,1140.0,-0.06825325550067353,-57.0,-0.13043478260869565,22.0,-0.03298350824587706,-87.0,0.5727136431784108,-382.0,4209.523809523809,2873.0,100.0,0.0,100.0,1.790960008338E12,-1.0,1.7909600079165E12,5937.5
305,8408914.0,8408914.0,256619.68994140625,8408914.0,3.1956521739130435,1300.0,10.358695652173912,1959.0,0.858695652173913,2174.0,-0.1960784313725477,-570.0,0.05059122885795624,1162.0,0.08860948959736567,-67.0,-0.13493253373313344,10.0,-0.014992503748125937,-90.0,0.5922038980509745,-395.0,4209.523809523809,2873.0,100.0,0.0,100.0,1.790960008338E12,-1.0,1.7909600079360312E12,5957.03125
306,8409554.0,8409554.0,256639.22119140625,8409554.0,3.184782608695652,1302.0,10.33695652173913,1960.0,0.8478260869565217,2175.0,-0.17871576111360635,-580.0,0.2035623409669217,1161.0,-0.0679538991168987,-57.0,-0.13793103448275862,22.0,-0.03298350824587706,-92.0,0.5802098950524738,-387.0,4209.523809523809,2873.0,100.0,0.0,100.0,1.790960008459E12,-1.0,1.7909600079555625E12,5976.5625
307,8410194.0,8410194.0,256658.75244140625,8410194.0,3.184782608695652,1300.0,10.358695652173912,1960.0,0.8804347826086957,2172.0,-0.13201616524472526,-573.0,0.09729082472683732,1158.0,0.3307888040712468,-83.0,-0.12893553223388304,21.0,-0.031484257871064465,-86.0,0.5787106446776612,-386.0,4210.989010989011,2874.0,100.0,0.0,100.0,1.790960008459E12,-1.0,1.7909600079750938E12,5996.09375
308,8410834.0,8410834.0,256678.28369140625,8410834.0,3.184782608695652,1300.0,10.358695652173912,1960.0,0.8478260869565217,2175.0,-0.09848825026193751,-570.0,0.04759766502020665,1156.0,0.13201616524472387,-70.0,-0.136431784107946,18.0,-0.026986506746626684,-91.0,0.5787106446776612,-386.0,4209.523809523809,2873.0,100.0,0.0,100.0,1.790960008459E12,-1.0,1.790960007994625E12,6015.625
