index,Clock 3_LSB|CAL|Ticks,Clock 3_LSB|UNCAL|Ticks,Timestamp|CAL|ms,Timestamp|UNCAL|Ticks,Accel_LN_X|CAL|m/(s^2),Accel_LN_X|UNCAL|no_units,Accel_LN_Y|CAL|m/(s^2),Accel_LN_Y|UNCAL|no_units,Accel_LN_Z|CAL|m/(s^2),Accel_LN_Z|UNCAL|no_units,Gyro_X|CAL|deg/s,Gyro_X|UNCAL|no_units,Gyro_Y|CAL|deg/s,Gyro_Y|UNCAL|no_units,Gyro_Z|CAL|deg/s,Gyro_Z|UNCAL|no_units,Mag_X|CAL|local_flux,Mag_X|UNCAL|no_units,Mag_Y|CAL|local_flux,Mag_Y|UNCAL|no_units,Mag_Z|CAL|local_flux,Mag_Z|UNCAL|no_units,Battery|CAL|mV,Battery|UNCAL|no_units,Batt_Percentage|CAL|%,Packet_Reception_Rate_Current|CAL|%,Packet_Reception_Rate_Trial|CAL|%,System_Timestamp|CAL|ms,Event_Marker|CAL|no_units,System_Timestamp_Plot|CAL|ms,System_Timestamp_Plot_Zeroed|CAL|ms
0,1.0519714E7,1.0519714E7,321036.19384765625,1.0519714E7,0.9264354066985646,-1549.0,9.75598086124402,16312.0,0.07894736842105263,-132.0,0.07017543859649124,-8.0,0.21052631578947373,24.0,-0.008771929824561405,1.0,0.31334332833583206,-209.0,0.7226386806596702,-482.0,2.760119940029985,-1841.0,4200.7326007326,2867.0,100.0,0.0,100.0,1.790960002668E12,-1.0,1.790960002668E12,0.0
1,1.0520354E7,1.0520354E7,321055.72509765625,1.0520354E7,0.9258373205741627,-1548.0,9.754186602870814,16309.0,0.07894736842105263,-132.0,0.061403508771929835,-7.0,0.24561403508771934,28.0,-0.026315789473684216,3.0,0.3103448275862069,-207.0,0.7196401799100449,-480.0,2.7616191904047973,-1842.0,4199.267399267399,2866.0,100.0,0.0,100.0,1.790960002668E12,-1.0,1.7909600026875312E12,19.53125
2,1.0520994E7,1.0520994E7,321075.25634765625,1.0520994E7,0.9282296650717703,-1552.0,9.760765550239235,16320.0,0.07476076555023924,-125.0,0.09649122807017545,-11.0,0.22807017543859653,26.0,-0.01754385964912281,2.0,0.3058470764617691,-204.0,0.7181409295352323,-479.0,2.758620689655172,-1840.0,4200.7326007326,2867.0,100.0,0.0,100.0,1.790960002668E12,-1.0,1.7909600027070625E12,39.0625
3,1.0521634E7,1.0521634E7,321094.78759765625,1.0521634E7,0.9252392344497608,-1547.0,9.755382775119617,16311.0,0.07655502392344497,-128.0,0.08771929824561404,-10.0,0.26315789473684215,30.0,-0.026315789473684216,3.0,0.31334332833583206,-209.0,0.7136431784107946,-476.0,2.755622188905547,-1838.0,4200.7326007326,2867.0,100.0,0.0,100.0,1.790960002668E12,-1.0,1.7909600027265938E12,58.59375
4,1.0522274E7,1.0522274E7,321114.31884765625,1.0522274E7,0.9306220095693779,-1556.0,9.75598086124402,16312.0,0.07715311004784689,-129.0,0.061403508771929835,-7.0,0.28070175438596495,32.0,-0.008771929824561405,1.0,0.3118440779610195,-208.0,0.7226386806596702,-482.0,2.764617691154423,-1844.0,4202.197802197802,2868.0,100.0,0.0,100.0,1.790960002668E12,-1.0,1.790960002746125E12,78.125
5,1.0522914E7,1.0522914E7,321133.85009765625,1.0522914E7,0.9282296650717703,-1552.0,9.753588516746412,16308.0,0.07595693779904306,-127.0,0.08771929824561404,-10.0,0.2543859649122807,29.0,0.0,0.0,0.3088455772113943,-206.0,0.7196401799100449,-480.0,2.770614692653673,-1848.0,4202.197802197802,2868.0,100.0,0.0,100.0,1.790960002782E12,-1.0,1.7909600027656562E12,97.65625
6,1.0523554E7,1.0523554E7,321153.38134765625,1.0523554E7,0.9264354066985646,-1549.0,9.758373205741627,16316.0,0.07236842105263158,-121.0,0.05263157894736843,-6.0,0.21929824561403513,25.0,0.0,0.0,0.3148425787106447,-210.0,0.7196401799100449,-480.0,2.764617691154423,-1844.0,4202.197802197802,2868.0,100.0,0.0,100.0,1.790960002782E12,-1.0,1.7909600027851875E12,117.1875
7,1.0524194E7,1.0524194E7,321172.91259765625,1.0524194E7,0.9258373205741627,-1548.0,9.757775119617225,16315.0,0.06698564593301436,-112.0,0.07017543859649124,-8.0,0.21929824561403513,25.0,-0.03508771929824562,4.0,0.3058470764617691,-204.0,0.7241379310344828,-483.0,2.7616191904047973,-1842.0,4199.267399267399,2866.0,100.0,0.0,100.0,1.790960002782E12,-1.0,1.7909600028047188E12,136.71875
8,1.0524834E7,1.0524834E7,321192.44384765625,1.0524834E7,0.9258373205741627,-1548.0,9.758971291866029,16317.0,0.08074162679425836,-135.0,0.05263157894736843,-6.0,0.23684210526315794,27.0,-0.026315789473684216,3.0,0.3073463268365817,-205.0,0.7151424287856072,-477.0,2.755622188905547,-1838.0,4199.267399267399,2866.0,100.0,0.0,100.0,1.790960002782E12,-1.0,1.79096000282425E12,156.25
9,1.0525474E7,1.0525474E7,321211.97509765625,1.0525474E7,0.9282296650717703,-1552.0,9.763157894736842,16324.0,0.06997607655502391,-117.0,0.09649122807017545,-11.0,0.26315789473684215,30.0,-0.026315789473684216,3.0,0.30134932533733133,-201.0,0.7136431784107946,-476.0,2.755622188905547,-1838.0,4200.7326007326,2867.0,100.0,0.0,100.0,1.790960002782E12,-1.0,1.7909600028437812E12,175.78125
10,1.0526114E7,1.0526114E7,321231.50634765625,1.0526114E7,0.923444976076555,-1544.0,9.758373205741627,16316.0,0.0735645933014354,-123.0,0.05263157894736843,-6.0,0.23684210526315794,27.0,-0.01754385964912281,2.0,0.3058470764617691,-204.0,0.7211394302848575,-481.0,2.7661169415292353,-1845.0,4202.197802197802,2868.0,100.0,0.0,100.0,1.790960002782E12,-1.0,1.7909600028633125E12,195.3125
11,1.0526754E7,1.0526754E7,321251.03759765625,1.0526754E7,0.9258373205741627,-1548.0,9.761363636363637,16321.0,0.07117224880382775,-119.0,0.05263157894736843,-6.0,0.24561403508771934,28.0,-0.03508771929824562,4.0,0.3103448275862069,-207.0,0.7226386806596702,-482.0,2.7661169415292353,-1845.0,4197.802197802198,2865.0,100.0,0.0,100.0,1.790960002909E12,-1.0,1.7909600028828438E12,214.84375
12,1.0527394E7,1.0527394E7,321270.56884765625,1.0527394E7,0.9276315789473684,-1551.0,9.75598086124402,16312.0,0.07177033492822966,-120.0,0.07894736842105264,-9.0,0.23684210526315794,27.0,0.01754385964912281,-2.0,0.3073463268365817,-205.0,0.7211394302848575,-481.0,2.7661169415292353,-1845.0,4199.267399267399,2866.0,100.0,0.0,100.0,1.790960002909E12,-1.0,1.790960002902375E12,234.375
13,1.0528034E7,1.0528034E7,321290.10009765625,1.0528034E7,0.922846889952153,-1543.0,9.757775119617225,16315.0,0.06997607655502391,-117.0,0.07894736842105264,-9.0,0.2719298245614035,31.0,-0.026315789473684216,3.0,0.31334332833583206,-209.0,0.7211394302848575,-481.0,2.758620689655172,-1840.0,4197.802197802198,2865.0,100.0,0.0,100.0,1.790960002909E12,-1.0,1.7909600029219062E12,253.90625
14,1.0528674E7,1.0528674E7,321309.63134765625,1.0528674E7,0.9300239234449761,-1555.0,9.755382775119617,16311.0,0.0687799043062201,-115.0,0.07017543859649124,-8.0,0.23684210526315794,27.0,0.026315789473684216,-3.0,0.3148425787106447,-210.0,0.7136431784107946,-476.0,2.76311844077961,-1843.0,4197.802197802198,2865.0,100.0,0.0,100.0,1.790960002909E12,-1.0,1.7909600029414375E12,273.4375
15,1.0529314E7,1.0529314E7,321329.16259765625,1.0529314E7,0.9306220095693779,-1556.0,9.760765550239235,16320.0,0.0651913875598086,-109.0,0.07894736842105264,-9.0,0.26315789473684215,30.0,0.008771929824561405,-1.0,0.3118440779610195,-208.0,0.7196401799100449,-480.0,2.760119940029985,-1841.0,4197.802197802198,2865.0,100.0,0.0,100.0,1.790960002909E12,-1.0,1.7909600029609688E12,292.96875
16,1.0529954E7,1.0529954E7,321348.69384765625,1.0529954E7,0.9282296650717703,-1552.0,9.753588516746412,16308.0,0.07117224880382775,-119.0,0.04385964912280702,-5.0,0.23684210526315794,27.0,-0.008771929824561405,1.0,0.3058470764617691,-204.0,0.7151424287856072,-477.0,2.760119940029985,-1841.0,4199.267399267399,2866.0,100.0,0.0,100.0,1.790960002909E12,-1.0,1.7909600029805E12,312.5
17,1.0530594E7,1.0530594E7,321368.22509765625,1.0530594E7,0.9216507177033493,-1541.0,9.761363636363637,16321.0,0.06937799043062201,-116.0,0.07017543859649124,-8.0,0.2543859649122807,29.0,-0.01754385964912281,2.0,0.3058470764617691,-204.0,0.7241379310344828,-483.0,2.76311844077961,-1843.0,4199.267399267399,2866.0,100.0,0.0,100.0,1.790960003022E12,-1.0,1.7909600030000312E12,332.03125
18,1.0531234E7,1.0531234E7,321387.75634765625,1.0531234E7,0.9240430622009569,-1545.0,9.753588516746412,16308.0,0.06758373205741626,-113.0,0.07017543859649124,-8.0,0.22807017543859653,26.0,-0.008771929824561405,1.0,0.3088455772113943,-206.0,0.7196401799100449,-480.0,2.7616191904047973,-1842.0,4196.336996336996,2864.0,100.0,0.0,100.0,1.790960003022E12,-1.0,1.7909600030195625E12,351.5625
19,1.0531874E7,1.0531874E7,321407.28759765625,1.0531874E7,0.9264354066985646,-1549.0,9.753588516746412,16308.0,0.05980861244019139,-100.0,0.04385964912280702,-5.0,0.22807017543859653,26.0,-0.04385964912280702,5.0,0.3148425787106447,-210.0,0.7181409295352323,-479.0,2.755622188905547,-1838.0,4196.336996336996,2864.0,100.0,0.0,100.0,1.790960003022E12,-1.0,1.7909600030390938E12,371.09375
20,1.0532514E7,1.0532514E7,321426.81884765625,1.0532514E7,0.9240430622009569,-1545.0,9.758373205741627,16316.0,0.07177033492822966,-120.0,0.09649122807017545,-11.0,0.22807017543859653,26.0,0.0,0.0,0.3073463268365817,-205.0,0.7211394302848575,-481.0,2.764617691154423,-1844.0,4199.267399267399,2866.0,100.0,0.0,100.0,1.790960003022E12,-1.0,1.790960003058625E12,390.625
21,1.0533154E7,1.0533154E7,321446.35009765625,1.0533154E7,0.9216507177033493,-1541.0,9.760167464114833,16319.0,0.07177033492822966,-120.0,0.07894736842105264,-9.0,0.22807017543859653,26.0,-0.01754385964912281,2.0,0.3103448275862069,-207.0,0.7151424287856072,-477.0,2.760119940029985,-1841.0,4200.7326007326,2867.0,100.0,0.0,100.0,1.790960003022E12,-1.0,1.7909600030781562E12,410.15625
22,1.0533794E7,1.0533794E7,321465.88134765625,1.0533794E7,0.9252392344497608,-1547.0,9.760765550239235,16320.0,0.06937799043062201,-116.0,0.09649122807017545,-11.0,0.26315789473684215,30.0,-0.03508771929824562,4.0,0.3118440779610195,-208.0,0.7196401799100449,-480.0,2.7661169415292353,-1845.0,4199.267399267399,2866.0,100.0,0.0,100.0,1.790960003022E12,-1.0,1.7909600030976875E12,429.6875
23,1.0534434E7,1.0534434E7,321485.41259765625,1.0534434E7,0.923444976076555,-1544.0,9.763157894736842,16324.0,0.06698564593301436,-112.0,0.07894736842105264,-9.0,0.2543859649122807,29.0,0.0,0.0,0.31634182908545727,-211.0,0.7226386806596702,-482.0,2.758620689655172,-1840.0,4200.7326007326,2867.0,100.0,0.0,100.0,1.790960003149E12,-1.0,1.7909600031172188E12,449.21875
24,1.0535074E7,1.0535074E7,321504.94384765625,1.0535074E7,0.9258373205741627,-1548.0,9.758971291866029,16317.0,0.06220095693779904,-104.0,0.05263157894736843,-6.0,0.2719298245614035,31.0,0.008771929824561405,-1.0,0.31634182908545727,-211.0,0.7241379310344828,-483.0,2.75712143928036,-1839.0,4200.7326007326,2867.0,100.0,0.0,100.0,1.790960003149E12,-1.0,1.79096000313675E12,468.75
25,1.0535714E7,1.0535714E7,321524.47509765625,1.0535714E7,0.9258373205741627,-1548.0,9.756578947368421,16313.0,0.06698564593301436,-112.0,0.07017543859649124,-8.0,0.21929824561403513,25.0,-0.026315789473684216,3.0,0.3103448275862069,-207.0,0.7151424287856072,-477.0,2.755622188905547,-1838.0,4200.7326007326,2867.0,100.0,0.0,100.0,1.790960003149E12,-1.0,1.7909600031562812E12,488.28125
26,1.0536354E7,1.0536354E7,321544.00634765625,1.0536354E7,0.923444976076555,-1544.0,9.757775119617225,16315.0,0.06997607655502391,-117.0,0.03508771929824562,-4.0,0.23684210526315794,27.0,-0.01754385964912281,2.0,0.3058470764617691,-204.0,0.712143928035982,-475.0,2.7661169415292353,-1845.0,4199.267399267399,2866.0,100.0,0.0,100.0,1.790960003149E12,-1.0,1.7909600031758125E12,507.8125
27,1.0536994E7,1.0536994E7,321563.53759765625,1.0536994E7,0.9282296650717703,-1552.0,9.757775119617225,16315.0,0.0735645933014354,-123.0,0.07894736842105264,-9.0,0.26315789473684215,30.0,-0.008771929824561405,1.0,0.3103448275862069,-207.0,0.712143928035982,-475.0,2.755622188905547,-1838.0,4202.197802197802,2868.0,100.0,0.0,100.0,1.790960003149E12,-1.0,1.7909600031953438E12,527.34375
28,1.0537634E7,1.0537634E7,321583.06884765625,1.0537634E7,0.9276315789473684,-1551.0,9.75598086124402,16312.0,0.06758373205741626,-113.0,0.05263157894736843,-6.0,0.23684210526315794,27.0,-0.01754385964912281,2.0,0.3073463268365817,-205.0,0.7166416791604198,-478.0,2.764617691154423,-1844.0,4200.7326007326,2867.0,100.0,0.0,100.0,1.790960003149E12,-1.0,1.790960003214875E12,546.875
29,1.0538274E7,1.0538274E7,321602.60009765625,1.0538274E7,0.9258373205741627,-1548.0,9.758373205741627,16316.0,0.07117224880382775,-119.0,0.08771929824561404,-10.0,0.21929824561403513,25.0,-0.026315789473684216,3.0,0.3118440779610195,-208.0,0.7196401799100449,-480.0,2.7616191904047973,-1842.0,4200.7326007326,2867.0,100.0,0.0,100.0,1.790960003149E12,-1.0,1.7909600032344062E12,566.40625
30,1.0538914E7,1.0538914E7,321622.13134765625,1.0538914E7,0.9240430622009569,-1545.0,9.75598086124402,16312.0,0.06698564593301436,-112.0,0.11403508771929827,-13.0,0.22807017543859653,26.0,-0.026315789473684216,3.0,0.3148425787106447,-210.0,0.7256371814092953,-484.0,2.764617691154423,-1844.0,4202.197802197802,2868.0,100.0,0.0,100.0,1.790960003267E12,-1.0,1.7909600032539375E12,585.9375
31,1.0539554E7,1.0539554E7,321641.66259765625,1.0539554E7,0.923444976076555,-1544.0,9.758971291866029,16317.0,0.07177033492822966,-120.0,0.07894736842105264,-9.0,0.24561403508771934,28.0,-0.04385964912280702,5.0,0.31334332833583206,-209.0,0.7181409295352323,-479.0,2.7616191904047973,-1842.0,4200.7326007326,2867.0,100.0,0.0,100.0,1.790960003267E12,-1.0,1.7909600032734688E12,605.46875
32,1.0540194E7,1.0540194E7,321661.19384765625,1.0540194E7,0.922846889952153,-1543.0,9.755382775119617,16311.0,0.07177033492822966,-120.0,0.08771929824561404,-10.0,0.24561403508771934,28.0,-0.01754385964912281,2.0,0.3043478260869565,-203.0,0.7106446776611693,-474.0,2.7616191904047973,-1842.0,4199.267399267399,2866.0,100.0,0.0,100.0,1.790960003267E12,-1.0,1.790960003293E12,625.0
33,1.0540834E7,1.0540834E7,321680.72509765625,1.0540834E7,0.9258373205741627,-1548.0,9.763157894736842,16324.0,0.0687799043062201,-115.0,0.07017543859649124,-8.0,0.23684210526315794,27.0,-0.008771929824561405,1.0,0.3118440779610195,-208.0,0.7151424287856072,-477.0,2.76311844077961,-1843.0,4199.267399267399,2866.0,100.0,0.0,100.0,1.790960003267E12,-1.0,1.7909600033125312E12,644.53125
34,1.0541474E7,1.0541474E7,321700.25634765625,1.0541474E7,0.9264354066985646,-1549.0,9.758373205741627,16316.0,0.06698564593301436,-112.0,0.061403508771929835,-7.0,0.23684210526315794,27.0,-0.008771929824561405,1.0,0.3073463268365817,-205.0,0.7241379310344828,-483.0,2.760119940029985,-1841.0,4200.7326007326,2867.0,100.0,0.0,100.0,1.790960003267E12,-1.0,1.7909600033320625E12,664.0625
35,1.0542114E7,1.0542114E7,321719.78759765625,1.0542114E7,0.9264354066985646,-1549.0,9.757775119617225,16315.0,0.0645933014354067,-108.0,0.07894736842105264,-9.0,0.2017543859649123,23.0,-0.008771929824561405,1.0,0.3088455772113943,-206.0,0.712143928035982,-475.0,2.75712143928036,-1839.0,4197.802197802198,2865.0,100.0,0.0,100.0,1.790960003267E12,-1.0,1.7909600033515938E12,683.59375
36,1.0542754E7,1.0542754E7,321739.31884765625,1.0542754E7,0.9258373205741627,-1548.0,9.758971291866029,16317.0,0.07117224880382775,-119.0,0.08771929824561404,-10.0,0.23684210526315794,27.0,0.008771929824561405,-1.0,0.3058470764617691,-204.0,0.7181409295352323,-479.0,2.76311844077961,-1843.0,4200.7326007326,2867.0,100.0,0.0,100.0,1.790960003385E12,-1.0,1.790960003371125E12,703.125
37,1.0543394E7,1.0543394E7,321758.85009765625,1.0543394E7,0.923444976076555,-1544.0,9.75598086124402,16312.0,0.0645933014354067,-108.0,0.07894736842105264,-9.0,0.21052631578947373,24.0,0.0,0.0,0.3148425787106447,-210.0,0.7106446776611693,-474.0,2.760119940029985,-1841.0,4199.267399267399,2866.0,100.0,0.0,100.0,1.790960003385E12,-1.0,1.7909600033906562E12,722.65625
38,1.0544034E7,1.0544034E7,321778.38134765625,1.0544034E7,0.9258373205741627,-1548.0,9.761363636363637,16321.0,0.0687799043062201,-115.0,0.07017543859649124,-8.0,0.2543859649122807,29.0,-0.008771929824561405,1.0,0.31784107946026985,-212.0,0.7211394302848575,-481.0,2.7616191904047973,-1842.0,4199.267399267399,2866.0,100.0,0.0,100.0,1.790960003385E12,-1.0,1.7909600034101875E12,742.1875
39,1.0544674E7,1.0544674E7,321797.91259765625,1.0544674E7,0.9300239234449761,-1555.0,9.753588516746412,16308.0,0.06937799043062201,-116.0,0.05263157894736843,-6.0,0.22807017543859653,26.0,-0.04385964912280702,5.0,0.32083958020989506,-214.0,0.7196401799100449,-480.0,2.7661169415292353,-1845.0,4200.7326007326,2867.0,100.0,0.0,100.0,1.790960003385E12,-1.0,1.7909600034297188E12,761.71875
40,1.0545314E7,1.0545314E7,321817.44384765625,1.0545314E7,0.9252392344497608,-1547.0,9.760765550239235,16320.0,0.06698564593301436,-112.0,0.08771929824561404,-10.0,0.21929824561403513,25.0,-0.01754385964912281,2.0,0.3028485757121439,-202.0,0.712143928035982,-475.0,2.764617691154423,-1844.0,4197.802197802198,2865.0,100.0,0.0,100.0,1.790960003385E12,-1.0,1.79096000344925E12,781.25
41,1.0545954E7,1.0545954E7,321836.97509765625,1.0545954E7,0.922846889952153,-1543.0,9.758971291866029,16317.0,0.05921052631578947,-99.0,0.04385964912280702,-5.0,0.22807017543859653,26.0,-0.01754385964912281,2.0,0.3118440779610195,-208.0,0.7196401799100449,-480.0,2.7481259370314843,-1833.0,4199.267399267399,2866.0,100.0,0.0,100.0,1.790960003385E12,-1.0,1.7909600034687812E12,800.78125
42,1.0546594E7,1.0546594E7,321856.50634765625,1.0546594E7,0.9258373205741627,-1548.0,9.763157894736842,16324.0,0.06279904306220095,-105.0,0.05263157894736843,-6.0,0.26315789473684215,30.0,-0.008771929824561405,1.0,0.3118440779610195,-208.0,0.7136431784107946,-476.0,2.76311844077961,-1843.0,4197.802197802198,2865.0,100.0,0.0,100.0,1.790960003506E12,-1.0,1.7909600034883125E12,820.3125
43,1.0547234E7,1.0547234E7,321876.03759765625,1.0547234E7,0.923444976076555,-1544.0,9.760167464114833,16319.0,0.0645933014354067,-108.0,0.09649122807017545,-11.0,0.23684210526315794,27.0,0.008771929824561405,-1.0,0.3103448275862069,-207.0,0.7151424287856072,-477.0,2.758620689655172,-1840.0,4199.267399267399,2866.0,100.0,0.0,100.0,1.790960003506E12,-1.0,1.7909600035078438E12,839.84375
44,1.0547874E7,1.0547874E7,321895.56884765625,1.0547874E7,0.9300239234449761,-1555.0,9.761363636363637,16321.0,0.06638755980861244,-111.0,0.061403508771929835,-7.0,0.2719298245614035,31.0,0.0,0.0,0.3103448275862069,-207.0,0.7271364317841079,-485.0,2.760119940029985,-1841.0,4200.7326007326,2867.0,100.0,0.0,100.0,1.790960003506E12,-1.0,1.790960003527375E12,859.375
45,1.0548514E7,1.0548514E7,321915.10009765625,1.0548514E7,0.9276315789473684,-1551.0,9.757775119617225,16315.0,0.06220095693779904,-104.0,0.07894736842105264,-9.0,0.23684210526315794,27.0,0.01754385964912281,-2.0,0.3043478260869565,-203.0,0.7136431784107946,-476.0,2.7541229385307346,-1837.0,4200.7326007326,2867.0,100.0,0.0,100.0,1.790960003506E12,-1.0,1.7909600035469062E12,878.90625
46,1.0549154E7,1.0549154E7,321934.63134765625,1.0549154E7,0.922846889952153,-1543.0,9.763157894736842,16324.0,0.06698564593301436,-112.0,0.07017543859649124,-8.0,0.2017543859649123,23.0,-0.008771929824561405,1.0,0.3148425787106447,-210.0,0.7166416791604198,-478.0,2.755622188905547,-1838.0,4199.267399267399,2866.0,100.0,0.0,100.0,1.790960003506E12,-1.0,1.7909600035664375E12,898.4375
47,1.0549794E7,1.0549794E7,321954.16259765625,1.0549794E7,0.9282296650717703,-1552.0,9.760765550239235,16320.0,0.05980861244019139,-100.0,0.061403508771929835,-7.0,0.22807017543859653,26.0,0.0,0.0,0.30134932533733133,-201.0,0.7196401799100449,-480.0,2.760119940029985,-1841.0,4197.802197802198,2865.0,100.0,0.0,100.0,1.790960003506E12,-1.0,1.7909600035859688E12,917.96875
48,1.0550434E7,1.0550434E7,321973.69384765625,1.0550434E7,0.9282296650717703,-1552.0,9.758373205741627,16316.0,0.06937799043062201,-116.0,0.061403508771929835,-7.0,0.21929824561403513,25.0,0.0,0.0,0.3058470764617691,-204.0,0.7181409295352323,-479.0,2.760119940029985,-1841.0,4199.267399267399,2866.0,100.0,0.0,100.0,1.790960003626E12,-1.0,1.7909600036055E12,937.5
49,1.0551074E7,1.0551074E7,321993.22509765625,1.0551074E7,0.9252392344497608,-1547.0,9.753588516746412,16308.0,0.0651913875598086,-109.0,0.05263157894736843,-6.0,0.21052631578947373,24.0,-0.01754385964912281,2.0,0.3118440779610195,-208.0,0.7151424287856072,-477.0,2.767616191904048,-1846.0,4200.7326007326,2867.0,100.0,0.0,100.0,1.790960003626E12,-1.0,1.7909600036250312E12,957.03125
50,1.0551714E7,1.0551714E7,322012.75634765625,1.0551714E7,0.9276315789473684,-1551.0,9.758373205741627,16316.0,0.06279904306220095,-105.0,0.10526315789473686,-12.0,0.2543859649122807,29.0,0.0,0.0,0.3058470764617691,-204.0,0.7196401799100449,-480.0,2.7616191904047973,-1842.0,4202.197802197802,2868.0,100.0,0.0,100.0,1.790960003626E12,-1.0,1.7909600036445625E12,976.5625
51,1.0552354E7,1.0552354E7,322032.28759765625,1.0552354E7,0.9240430622009569,-1545.0,9.758971291866029,16317.0,0.06399521531100479,-107.0,0.015995872033023745,-10.0,0.01565187478500173,29.0,-0.005331957344341248,2.0,0.3088455772113943,-206.0,0.7166416791604198,-478.0,2.752623688155922,-1836.0,4200.7326007326,2867.0,100.0,0.0,100.0,1.790960003626E12,-1.0,1.7909600036640938E12,996.09375
52,1.0552994E7,1.0552994E7,322051.81884765625,1.0552994E7,0.9258373205741627,-1548.0,9.758373205741627,16316.0,0.05801435406698564,-97.0,0.01565187478500173,-10.0,-0.0027519779841761174,27.0,0.0036119711042311656,1.0,0.3118440779610195,-208.0,0.7151424287856072,-477.0,2.755622188905547,-1838.0,4200.7326007326,2867.0,100.0,0.0,100.0,1.790960003626E12,-1.0,1.790960003683625E12,1015.625
53,1.0553634E7,1.0553634E7,322071.35009765625,1.0553634E7,0.9210526315789473,-1540.0,9.753588516746412,16308.0,0.06698564593301436,-112.0,-0.0024079807361541182,-8.0,0.0149638802889577,29.0,0.012039903680770554,0.0,0.31334332833583206,-209.0,0.7181409295352323,-479.0,2.758620689655172,-1840.0,4200.7326007326,2867.0,100.0,0.0,100.0,1.790960003626E12,-1.0,1.7909600037031562E12,1035.15625
54,1.0554274E7,1.0554274E7,322090.88134765625,1.0554274E7,0.9288277511961722,-1553.0,9.757775119617225,16315.0,0.06220095693779904,-104.0,-0.028207774337805296,-5.0,0.014447884416924678,29.0,0.0029239766081871343,1.0,0.3058470764617691,-204.0,0.7211394302848575,-481.0,2.7691154422788604,-1847.0,4199.267399267399,2866.0,100.0,0.0,100.0,1.790960003745E12,-1.0,1.7909600037226875E12,1054.6875
55,1.0554914E7,1.0554914E7,322110.41259765625,1.0554914E7,0.9258373205741627,-1548.0,9.753588516746412,16308.0,0.0645933014354067,-108.0,0.02528379772961817,-11.0,0.014619883040935686,29.0,0.020123839009287926,-1.0,0.31634182908545727,-211.0,0.7241379310344828,-483.0,2.760119940029985,-1841.0,4200.7326007326,2867.0,100.0,0.0,100.0,1.790960003745E12,-1.0,1.7909600037422188E12,1074.21875
56,1.0555554E7,1.0555554E7,322129.94384765625,1.0555554E7,0.9252392344497608,-1547.0,9.758373205741627,16316.0,0.0645933014354067,-108.0,-0.03680770553835569,-4.0,0.006363949088407302,28.0,-0.0065359477124183,2.0,0.3148425787106447,-210.0,0.7286356821589205,-486.0,2.7661169415292353,-1845.0,4200.7326007326,2867.0,100.0,0.0,100.0,1.790960003745E12,-1.0,1.79096000376175E12,1093.75
57,1.0556194E7,1.0556194E7,322149.47509765625,1.0556194E7,0.9252392344497608,-1547.0,9.758373205741627,16316.0,0.06220095693779904,-104.0,-6.879944960440294E-4,-8.0,0.024079807361541118,30.0,-0.006191950464396285,2.0,0.3073463268365817,-205.0,0.7196401799100449,-480.0,2.760119940029985,-1841.0,4200.7326007326,2867.0,100.0,0.0,100.0,1.790960003745E12,-1.0,1.7909600037812812E12,1113.28125
58,1.0556834E7,1.0556834E7,322169.00634765625,1.0556834E7,0.9252392344497608,-1547.0,9.758373205741627,16316.0,0.06937799043062201,-116.0,-0.001031991744066044,-8.0,0.023219814241486083,30.0,-0.005847953216374269,2.0,0.3118440779610195,-208.0,0.7136431784107946,-476.0,2.758620689655172,-1840.0,4199.267399267399,2866.0,100.0,0.0,100.0,1.790960003745E12,-1.0,1.7909600038008125E12,1132.8125
59,1.0557474E7,1.0557474E7,322188.53759765625,1.0557474E7,0.9288277511961722,-1553.0,9.757775119617225,16315.0,0.05921052631578947,-99.0,0.00773993808049536,-9.0,0.013587891296869641,29.0,0.002579979360165118,1.0,0.3118440779610195,-208.0,0.7211394302848575,-481.0,2.758620689655172,-1840.0,4199.267399267399,2866.0,100.0,0.0,100.0,1.790960003745E12,-1.0,1.7909600038203438E12,1152.34375
60,1.0558114E7,1.0558114E7,322208.06884765625,1.0558114E7,0.9252392344497608,-1547.0,9.75598086124402,16312.0,0.0645933014354067,-108.0,-0.010319917440660471,-7.0,0.03955968352253184,32.0,0.01977984176126591,-1.0,0.3148425787106447,-210.0,0.7151424287856072,-477.0,2.760119940029985,-1841.0,4197.802197802198,2865.0,100.0,0.0,100.0,1.790960003868E12,-1.0,1.790960003839875E12,1171.875
61,1.0558754E7,1.0558754E7,322227.60009765625,1.0558754E7,0.922846889952153,-1543.0,9.75598086124402,16312.0,0.06638755980861244,-111.0,0.007911936704506368,-9.0,0.004127966976264176,28.0,0.010319917440660476,0.0,0.3073463268365817,-205.0,0.7151424287856072,-477.0,2.758620689655172,-1840.0,4200.7326007326,2867.0,100.0,0.0,100.0,1.790960003868E12,-1.0,1.7909600038594062E12,1191.40625
62,1.0559394E7,1.0559394E7,322247.13134765625,1.0559394E7,0.9210526315789473,-1540.0,9.75299043062201,16307.0,0.05980861244019139,-100.0,-0.0013759889920880587,-8.0,-0.013587891296869641,26.0,0.01874785001719987,-1.0,0.3073463268365817,-205.0,0.7151424287856072,-477.0,2.75712143928036,-1839.0,4200.7326007326,2867.0,100.0,0.0,100.0,1.790960003868E12,-1.0,1.7909600038789375E12,1210.9375
63,1.0560034E7,1.0560034E7,322266.66259765625,1.0560034E7,0.923444976076555,-1544.0,9.75598086124402,16312.0,0.0645933014354067,-108.0,-0.028035775713794286,-5.0,0.013071895424836588,29.0,0.009115927072583423,0.0,0.3103448275862069,-207.0,0.7241379310344828,-483.0,2.75712143928036,-1839.0,4197.802197802198,2865.0,100.0,0.0,100.0,1.790960003868E12,-1.0,1.7909600038984688E12,1230.46875
64,1.0560674E7,1.0560674E7,322286.19384765625,1.0560674E7,0.9264354066985646,-1549.0,9.757775119617225,16315.0,0.05921052631578947,-99.0,0.02528379772961817,-11.0,0.003955968352253168,28.0,6.879944960440331E-4,1.0,0.31334332833583206,-209.0,0.7136431784107946,-476.0,2.75712143928036,-1839.0,4197.802197802198,2865.0,100.0,0.0,100.0,1.790960003868E12,-1.0,1.790960003918E12,1250.0
65,1.0561314E7,1.0561314E7,322305.72509765625,1.0561314E7,0.9216507177033493,-1541.0,9.75598086124402,16312.0,0.06638755980861244,-111.0,-0.010147918816649464,-7.0,0.004471964224286222,28.0,-0.0259717922256622,4.0,0.31334332833583206,-209.0,0.7166416791604198,-478.0,2.75712143928036,-1839.0,4199.267399267399,2866.0,100.0,0.0,100.0,1.790960003868E12,-1.0,1.7909600039375312E12,1269.53125
66,1.0561954E7,1.0561954E7,322325.25634765625,1.0561954E7,0.9306220095693779,-1556.0,9.760167464114833,16319.0,0.05980861244019139,-100.0,0.007567939456484354,-9.0,0.013071895424836588,29.0,0.027863777089783288,-2.0,0.3088455772113943,-206.0,0.7211394302848575,-481.0,2.7511244377811095,-1835.0,4200.7326007326,2867.0,100.0,0.0,100.0,1.790960003985E12,-1.0,1.7909600039570625E12,1289.0625
67,1.0562594E7,1.0562594E7,322344.78759765625,1.0562594E7,0.9288277511961722,-1553.0,9.760765550239235,16320.0,0.06698564593301436,-112.0,0.007567939456484354,-9.0,-0.013071895424836588,26.0,-0.00739594083247334,2.0,0.3088455772113943,-206.0,0.7181409295352323,-479.0,2.758620689655172,-1840.0,4202.197802197802,2868.0,100.0,0.0,100.0,1.790960003985E12,-1.0,1.7909600039765938E12,1308.59375
68,1.0563234E7,1.0563234E7,322364.31884765625,1.0563234E7,0.9240430622009569,-1545.0,9.753588516746412,16308.0,0.05980861244019139,-100.0,-0.0018919848641210807,-8.0,-0.004127966976264176,27.0,0.0015479876160990717,1.0,0.31334332833583206,-209.0,0.7241379310344828,-483.0,2.752623688155922,-1836.0,4202.197802197802,2868.0,100.0,0.0,100.0,1.790960003985E12,-1.0,1.790960003996125E12,1328.125
69,1.0563874E7,1.0563874E7,322383.85009765625,1.0563874E7,0.923444976076555,-1544.0,9.760765550239235,16320.0,0.0645933014354067,-108.0,-0.0018919848641210807,-8.0,0.06639146886824908,35.0,-0.00739594083247334,2.0,0.3103448275862069,-207.0,0.7196401799100449,-480.0,2.76311844077961,-1843.0,4200.7326007326,2867.0,100.0,0.0,100.0,1.790960003985E12,-1.0,1.7909600040156562E12,1347.65625
70,1.0564514E7,1.0564514E7,322403.38134765625,1.0564514E7,0.9264354066985646,-1549.0,9.760765550239235,16320.0,0.06279904306220095,-105.0,-0.010663914688682486,-7.0,0.02975576195390436,31.0,-0.015995872033023738,3.0,0.31334332833583206,-209.0,0.7166416791604198,-478.0,2.755622188905547,-1838.0,4199.267399267399,2866.0,100.0,0.0,100.0,1.790960003985E12,-1.0,1.7909600040351875E12,1367.1875
71,1.0565154E7,1.0565154E7,322422.91259765625,1.0565154E7,0.9288277511961722,-1553.0,9.760765550239235,16320.0,0.06220095693779904,-104.0,-0.002235982112143111,-8.0,-0.0149638802889577,26.0,-0.007567939456484348,2.0,0.3103448275862069,-207.0,0.7181409295352323,-479.0,2.752623688155922,-1836.0,4197.802197802198,2865.0,100.0,0.0,100.0,1.790960003985E12,-1.0,1.7909600040547188E12,1386.71875
72,1.0565794E7,1.0565794E7,322442.44384765625,1.0565794E7,0.9306220095693779,-1556.0,9.756578947368421,16313.0,0.06279904306220095,-105.0,-0.0017199862401100733,-8.0,0.011351909184726514,29.0,0.0015479876160990717,1.0,0.3043478260869565,-203.0,0.7196401799100449,-480.0,2.76311844077961,-1843.0,4200.7326007326,2867.0,100.0,0.0,100.0,1.790960004109E12,-1.0,1.79096000407425E12,1406.25
73,1.0566434E7,1.0566434E7,322461.97509765625,1.0566434E7,0.9240430622009569,-1545.0,9.758373205741627,16316.0,0.05562200956937799,-93.0,-0.04540763673890609,-3.0,0.002063983488132088,28.0,0.010147918816649469,0.0,0.3103448275862069,-207.0,0.7211394302848575,-481.0,2.7541229385307346,-1837.0,4199.267399267399,2866.0,100.0,0.0,100.0,1.790960004109E12,-1.0,1.7909600040937812E12,1425.78125
74,1.0567074E7,1.0567074E7,322481.50634765625,1.0567074E7,0.9282296650717703,-1552.0,9.760167464114833,16319.0,0.06638755980861244,-111.0,-0.017715858273133815,-6.0,-0.006363949088407302,27.0,-0.016855865153078776,3.0,0.3073463268365817,-205.0,0.7241379310344828,-483.0,2.758620689655172,-1840.0,4199.267399267399,2866.0,100.0,0.0,100.0,1.790960004109E12,-1.0,1.7909600041133125E12,1445.3125
75,1.0567714E7,1.0567714E7,322501.03759765625,1.0567714E7,0.9264354066985646,-1549.0,9.758373205741627,16316.0,0.057416267942583726,-96.0,-0.00842793257653939,-7.0,0.0027519779841761174,28.0,-0.016339869281045753,3.0,0.3073463268365817,-205.0,0.7181409295352323,-479.0,2.758620689655172,-1840.0,4200.7326007326,2867.0,100.0,0.0,100.0,1.790960004109E12,-1.0,1.7909600041328438E12,1464.84375
76,1.0568354E7,1.0568354E7,322520.56884765625,1.0568354E7,0.922846889952153,-1543.0,9.758373205741627,16316.0,0.057416267942583726,-96.0,-0.05245958032335742,-2.0,0.012039903680770543,29.0,-0.015651874785001723,3.0,0.3118440779610195,-208.0,0.7136431784107946,-476.0,2.7616191904047973,-1842.0,4200.7326007326,2867.0,100.0,0.0,100.0,1.790960004109E12,-1.0,1.790960004152375E12,1484.375
77,1.0568994E7,1.0568994E7,322540.10009765625,1.0568994E7,0.9264354066985646,-1549.0,9.756578947368421,16313.0,0.06399521531100479,-107.0,0.027519779841761273,-11.0,0.02012383900928792,30.0,0.0018919848641210885,1.0,0.3058470764617691,-204.0,0.7226386806596702,-482.0,2.764617691154423,-1844.0,4199.267399267399,2866.0,100.0,0.0,100.0,1.790960004109E12,-1.0,1.7909600041719062E12,1503.90625
78,1.0569634E7,1.0569634E7,322559.63134765625,1.0569634E7,0.9258373205741627,-1548.0,9.757775119617225,16315.0,0.0645933014354067,-108.0,-0.008771929824561405,-7.0,-0.01547987616099072,26.0,0.010491916064671484,0.0,0.3028485757121439,-202.0,0.7166416791604198,-478.0,2.760119940029985,-1841.0,4199.267399267399,2866.0,100.0,0.0,100.0,1.790960004109E12,-1.0,1.7909600041914375E12,1523.4375
79,1.0570274E7,1.0570274E7,322579.16259765625,1.0570274E7,0.9288277511961722,-1553.0,9.760167464114833,16319.0,0.05921052631578947,-99.0,0.017887856897144824,-10.0,0.011523907808737521,29.0,-0.007223942208462333,2.0,0.3148425787106447,-210.0,0.7211394302848575,-481.0,2.7616191904047973,-1842.0,4199.267399267399,2866.0,100.0,0.0,100.0,1.790960004225E12,-1.0,1.7909600042109688E12,1542.96875
80,1.0570914E7,1.0570914E7,322598.69384765625,1.0570914E7,0.9258373205741627,-1548.0,9.758373205741627,16316.0,0.05980861244019139,-100.0,0.017199862401100795,-10.0,-0.015135878912968708,26.0,0.0015479876160990717,1.0,0.3028485757121439,-202.0,0.7211394302848575,-481.0,2.760119940029985,-1841.0,4199.267399267399,2866.0,100.0,0.0,100.0,1.790960004225E12,-1.0,1.7909600042305E12,1562.5
81,1.0571554E7,1.0571554E7,322618.22509765625,1.0571554E7,0.9264354066985646,-1549.0,9.757775119617225,16315.0,0.0604066985645933,-101.0,0.017199862401100795,-10.0,0.0022359821121430952,28.0,-0.007567939456484348,2.0,0.3073463268365817,-205.0,0.7181409295352323,-479.0,2.758620689655172,-1840.0,4199.267399267399,2866.0,100.0,0.0,100.0,1.790960004225E12,-1.0,1.7909600042500312E12,1582.03125
82,1.0572194E7,1.0572194E7,322637.75634765625,1.0572194E7,0.9210526315789473,-1540.0,9.756578947368421,16313.0,0.06937799043062201,-116.0,0.03525971792225663,-12.0,-0.006879944960440324,27.0,-0.016511867905056758,3.0,0.3073463268365817,-205.0,0.7211394302848575,-481.0,2.7616191904047973,-1842.0,4199.267399267399,2866.0,100.0,0.0,100.0,1.790960004225E12,-1.0,1.7909600042695625E12,1601.5625
83,1.0572834E7,1.0572834E7,322657.28759765625,1.0572834E7,0.9288277511961722,-1553.0,9.75598086124402,16312.0,0.05801435406698564,-97.0,0.017199862401100795,-10.0,-0.01547987616099072,26.0,-0.02562779497764018,4.0,0.3073463268365817,-205.0,0.7166416791604198,-478.0,2.7721139430284856,-1849.0,4197.802197802198,2865.0,100.0,0.0,100.0,1.790960004225E12,-1.0,1.7909600042890938E12,1621.09375
84,1.0573474E7,1.0573474E7,322676.81884765625,1.0573474E7,0.923444976076555,-1544.0,9.75598086124402,16312.0,0.056818181818181816,-95.0,0.00842793257653939,-9.0,-0.006363949088407302,27.0,-0.016511867905056758,3.0,0.3058470764617691,-204.0,0.7106446776611693,-474.0,2.755622188905547,-1838.0,4200.7326007326,2867.0,100.0,0.0,100.0,1.790960004225E12,-1.0,1.790960004308625E12,1640.625
85,1.0574114E7,1.0574114E7,322696.35009765625,1.0574114E7,0.9276315789473684,-1551.0,9.75598086124402,16312.0,0.05562200956937799,-93.0,-0.009287925696594427,-7.0,0.011179910560715507,29.0,0.0013759889920880643,1.0,0.3073463268365817,-205.0,0.7181409295352323,-479.0,2.758620689655172,-1840.0,4197.802197802198,2865.0,100.0,0.0,100.0,1.790960004348E12,-1.0,1.7909600043281562E12,1660.15625
86,1.0574754E7,1.0574754E7,322715.88134765625,1.0574754E7,0.9252392344497608,-1547.0,9.758373205741627,16316.0,0.05921052631578947,-99.0,-5.15995872033022E-4,-8.0,-0.006707946336429317,27.0,-0.016167870657034743,3.0,0.3058470764617691,-204.0,0.7196401799100449,-480.0,2.76311844077961,-1843.0,4199.267399267399,2866.0,100.0,0.0,100.0,1.790960004348E12,-1.0,1.7909600043476875E12,1679.6875
87,1.0575394E7,1.0575394E7,322735.41259765625,1.0575394E7,0.9300239234449761,-1555.0,9.758971291866029,16317.0,0.06399521531100479,-107.0,0.00842793257653939,-9.0,0.0013759889920880587,28.0,-0.02459580323357413,4.0,0.30134932533733133,-201.0,0.7136431784107946,-476.0,2.758620689655172,-1840.0,4200.7326007326,2867.0,100.0,0.0,100.0,1.790960004348E12,-1.0,1.7909600043672188E12,1699.21875
88,1.0576034E7,1.0576034E7,322754.94384765625,1.0576034E7,0.923444976076555,-1544.0,9.758971291866029,16317.0,0.06220095693779904,-104.0,-0.008943928448572412,-7.0,0.027519779841761266,31.0,-0.023735810113519096,4.0,0.31634182908545727,-211.0,0.7226386806596702,-482.0,2.75712143928036,-1839.0,4199.267399267399,2866.0,100.0,0.0,100.0,1.790960004348E12,-1.0,1.79096000438675E12,1718.75
89,1.0576674E7,1.0576674E7,322774.47509765625,1.0576674E7,0.9282296650717703,-1552.0,9.756578947368421,16313.0,0.0645933014354067,-108.0,1.7199862401100734E-4,-8.0,-0.008771929824561405,27.0,0.012039903680770554,0.0,0.31784107946026985,-212.0,0.7166416791604198,-478.0,2.7661169415292353,-1845.0,4200.7326007326,2867.0,100.0,0.0,100.0,1.790960004348E12,-1.0,1.7909600044062812E12,1738.28125
90,1.0577314E7,1.0577314E7,322794.00634765625,1.0577314E7,0.9216507177033493,-1541.0,9.756578947368421,16313.0,0.05801435406698564,-97.0,-0.03491572067423461,-4.0,0.026659786721706227,31.0,0.011867905056759545,0.0,0.3103448275862069,-207.0,0.7226386806596702,-482.0,2.7616191904047973,-1842.0,4202.197802197802,2868.0,100.0,0.0,100.0,1.790960004348E12,-1.0,1.7909600044258125E12,1757.8125
91,1.0577954E7,1.0577954E7,322813.53759765625,1.0577954E7,0.9312200956937798,-1557.0,9.761363636363637,16321.0,0.05562200956937799,-93.0,-0.0345717234262126,-4.0,0.008255933952528383,29.0,-0.006535947712418296,2.0,0.3058470764617691,-204.0,0.7136431784107946,-476.0,2.752623688155922,-1836.0,4200.7326007326,2867.0,100.0,0.0,100.0,1.790960004468E12,-1.0,1.7909600044453438E12,1777.34375
92,1.0578594E7,1.0578594E7,322833.06884765625,1.0578594E7,0.922846889952153,-1543.0,9.760167464114833,16319.0,0.06220095693779904,-104.0,0.036635706914344694,-12.0,-0.03629170966632267,24.0,0.011007911936704513,0.0,0.3073463268365817,-205.0,0.7196401799100449,-480.0,2.758620689655172,-1840.0,4199.267399267399,2866.0,100.0,0.0,100.0,1.790960004468E12,-1.0,1.790960004464875E12,1796.875
93,1.0579234E7,1.0579234E7,322852.60009765625,1.0579234E7,0.9252392344497608,-1547.0,9.760167464114833,16319.0,0.057416267942583726,-96.0,-0.0259717922256622,-5.0,0.03422772617819058,32.0,-0.006879944960440315,2.0,0.3028485757121439,-202.0,0.7196401799100449,-480.0,2.752623688155922,-1836.0,4199.267399267399,2866.0,100.0,0.0,100.0,1.790960004468E12,-1.0,1.7909600044844062E12,1816.40625
94,1.0579874E7,1.0579874E7,322872.13134765625,1.0579874E7,0.9282296650717703,-1552.0,9.758373205741627,16316.0,0.057416267942583726,-96.0,0.009287925696594427,-9.0,-0.0012039903680770513,28.0,-0.006707946336429303,2.0,0.3118440779610195,-208.0,0.7136431784107946,-476.0,2.76311844077961,-1843.0,4202.197802197802,2868.0,100.0,0.0,100.0,1.790960004468E12,-1.0,1.7909600045039375E12,1835.9375
95,1.0580514E7,1.0580514E7,322891.66259765625,1.0580514E7,0.9258373205741627,-1548.0,9.75598086124402,16312.0,0.05980861244019139,-100.0,0.018403852769177845,-10.0,0.0073959408324733465,29.0,0.011351909184726523,0.0,0.3103448275862069,-207.0,0.7166416791604198,-478.0,2.7541229385307346,-1837.0,4200.7326007326,2867.0,100.0,0.0,100.0,1.790960004468E12,-1.0,1.7909600045234688E12,1855.46875
96,1.0581154E7,1.0581154E7,322911.19384765625,1.0581154E7,0.9288277511961722,-1553.0,9.760167464114833,16319.0,0.05502392344497607,-92.0,-0.00842793257653939,-7.0,-0.001031991744066044,28.0,-0.006191950464396287,2.0,0.3088455772113943,-206.0,0.7211394302848575,-481.0,2.758620689655172,-1840.0,4197.802197802198,2865.0,100.0,0.0,100.0,1.790960004468E12,-1.0,1.790960004543E12,1875.0
97,1.0581794E7,1.0581794E7,322930.72509765625,1.0581794E7,0.9216507177033493,-1541.0,9.758971291866029,16317.0,0.06220095693779904,-104.0,-0.008083935328517375,-7.0,-0.0012039903680770513,28.0,0.003267973856209149,1.0,0.3028485757121439,-202.0,0.7106446776611693,-474.0,2.760119940029985,-1841.0,4199.267399267399,2866.0,100.0,0.0,100.0,1.790960004585E12,-1.0,1.7909600045625312E12,1894.53125
98,1.0582434E7,1.0582434E7,322950.25634765625,1.0582434E7,0.922846889952153,-1543.0,9.758971291866029,16317.0,0.05980861244019139,-100.0,0.009631922944616442,-9.0,0.01547987616099072,30.0,-0.023047815617475067,4.0,0.3073463268365817,-205.0,0.7181409295352323,-479.0,2.7616191904047973,-1842.0,4200.7326007326,2867.0,100.0,0.0,100.0,1.790960004585E12,-1.0,1.7909600045820625E12,1914.0625
99,1.0583074E7,1.0583074E7,322969.78759765625,1.0583074E7,0.923444976076555,-1544.0,9.75598086124402,16312.0,0.056818181818181816,-95.0,5.15995872033022E-4,-8.0,0.006019951840385287,29.0,0.0390436876504988,-3.0,0.3103448275862069,-207.0,0.7136431784107946,-476.0,2.760119940029985,-1841.0,4200.7326007326,2867.0,100.0,0.0,100.0,1.790960004585E12,-1.0,1.7909600046015938E12,1933.59375
100,1.0583714E7,1.0583714E7,322989.31884765625,1.0583714E7,0.9258373205741627,-1548.0,9.760765550239235,16320.0,0.05442583732057416,-91.0,-0.017199862401100795,-6.0,-0.020983832129342957,26.0,-0.04041967664258687,6.0,0.3118440779610195,-208.0,0.7226386806596702,-482.0,2.760119940029985,-1841.0,4200.7326007326,2867.0,100.0,0.0,100.0,1.790960004585E12,-1.0,1.790960004621125E12,1953.125
101,1.0584354E7,1.0584354E7,323008.85009765625,1.0584354E7,0.9330143540669856,-1560.0,9.758373205741627,16316.0,0.06220095693779904,-104.0,0.026659786721706227,-11.0,-0.012555899552803566,27.0,-0.02218782249742002,4.0,0.31334332833583206,-209.0,0.7181409295352323,-479.0,2.76311844077961,-1843.0,4197.802197802198,2865.0,100.0,0.0,100.0,1.790960004585E12,-1.0,1.7909600046406562E12,1972.65625
102,1.0584994E7,1.0584994E7,323028.38134765625,1.0584994E7,0.9258373205741627,-1548.0,9.760765550239235,16320.0,0.05980861244019139,-100.0,0.026831785345717236,-11.0,0.03164774681802547,32.0,-0.00395596835225318,2.0,0.3088455772113943,-206.0,0.7136431784107946,-476.0,2.76311844077961,-1843.0,4197.802197802198,2865.0,100.0,0.0,100.0,1.790960004585E12,-1.0,1.7909600046601875E12,1992.1875
103,1.0585634E7,1.0585634E7,323047.91259765625,1.0585634E7,0.923444976076555,-1544.0,9.760765550239235,16320.0,0.06220095693779904,-104.0,-0.017199862401100795,-6.0,0.0048159614723082365,29.0,0.004815961472308224,1.0,0.3118440779610195,-208.0,0.7241379310344828,-483.0,2.755622188905547,-1838.0,4199.267399267399,2866.0,100.0,0.0,100.0,1.790960004703E12,-1.0,1.7909600046797188E12,2011.71875
104,1.0586274E7,1.0586274E7,323067.44384765625,1.0586274E7,0.9288277511961722,-1553.0,9.760167464114833,16319.0,0.053229665071770335,-89.0,0.009803921568627449,-9.0,-0.021843825249397993,26.0,0.004815961472308224,1.0,0.3148425787106447,-210.0,0.7166416791604198,-478.0,2.752623688155922,-1836.0,4199.267399267399,2866.0,100.0,0.0,100.0,1.790960004703E12,-1.0,1.79096000469925E12,2031.25
105,1.0586914E7,1.0586914E7,323086.97509765625,1.0586914E7,0.923444976076555,-1544.0,9.758373205741627,16316.0,0.0651913875598086,-109.0,0.018403852769177845,-10.0,-0.030099759201926375,25.0,0.004987960096319232,1.0,0.3073463268365817,-205.0,0.7151424287856072,-477.0,2.7496251874062967,-1834.0,4199.267399267399,2866.0,100.0,0.0,100.0,1.790960004703E12,-1.0,1.7909600047187812E12,2050.78125
106,1.0587554E7,1.0587554E7,323106.50634765625,1.0587554E7,0.9330143540669856,-1560.0,9.757775119617225,16315.0,0.05502392344497607,-92.0,0.0,-8.0,-0.029411764705882346,25.0,0.004987960096319232,1.0,0.3088455772113943,-206.0,0.7106446776611693,-474.0,2.7616191904047973,-1842.0,4199.267399267399,2866.0,100.0,0.0,100.0,1.790960004703E12,-1.0,1.7909600047383125E12,2070.3125
107,1.0588194E7,1.0588194E7,323126.03759765625,1.0588194E7,0.9276315789473684,-1551.0,9.756578947368421,16313.0,0.06220095693779904,-104.0,-0.01702786377708979,-6.0,-0.011179910560715507,27.0,-0.029755761953904367,5.0,0.3103448275862069,-207.0,0.7211394302848575,-481.0,2.7616191904047973,-1842.0,4199.267399267399,2866.0,100.0,0.0,100.0,1.790960004703E12,-1.0,1.7909600047578438E12,2089.84375
108,1.0588834E7,1.0588834E7,323145.56884765625,1.0588834E7,0.9288277511961722,-1553.0,9.758971291866029,16317.0,0.05980861244019139,-100.0,-0.026143790849673207,-5.0,-0.0022359821121430952,28.0,-0.02046783625730994,4.0,0.3058470764617691,-204.0,0.7196401799100449,-480.0,2.755622188905547,-1838.0,4200.7326007326,2867.0,100.0,0.0,100.0,1.790960004703E12,-1.0,1.790960004777375E12,2109.375
109,1.0589474E7,1.0589474E7,323165.10009765625,1.0589474E7,0.9300239234449761,-1555.0,9.761363636363637,16321.0,0.05263157894736842,-88.0,0.03577571379428965,-12.0,-0.010663914688682486,27.0,-0.011351909184726523,3.0,0.3148425787106447,-210.0,0.7211394302848575,-481.0,2.752623688155922,-1836.0,4199.267399267399,2866.0,100.0,0.0,100.0,1.790960004825E12,-1.0,1.7909600047969062E12,2128.90625
110,1.0590114E7,1.0590114E7,323184.63134765625,1.0590114E7,0.9258373205741627,-1548.0,9.75598086124402,16312.0,0.05801435406698564,-97.0,-0.008771929824561405,-7.0,-0.02769177846577227,25.0,0.006363949088407291,1.0,0.3043478260869565,-203.0,0.7181409295352323,-479.0,2.7511244377811095,-1835.0,4202.197802197802,2868.0,100.0,0.0,100.0,1.790960004825E12,-1.0,1.7909600048164375E12,2148.4375
111,1.0590754E7,1.0590754E7,323204.16259765625,1.0590754E7,0.9282296650717703,-1552.0,9.755382775119617,16311.0,0.050239234449760764,-84.0,0.017887856897144824,-10.0,0.01685586515307878,30.0,-0.011179910560715519,3.0,0.3073463268365817,-205.0,0.7166416791604198,-478.0,2.76311844077961,-1843.0,4202.197802197802,2868.0,100.0,0.0,100.0,1.790960004825E12,-1.0,1.7909600048359688E12,2167.96875
112,1.0591394E7,1.0591394E7,323223.69384765625,1.0591394E7,0.9240430622009569,-1545.0,9.760765550239235,16320.0,0.061602870813397125,-103.0,0.017371861025111804,-10.0,-3.439972480220147E-4,28.0,-0.010491916064671484,3.0,0.3118440779610195,-208.0,0.7226386806596702,-482.0,2.758620689655172,-1840.0,4200.7326007326,2867.0,100.0,0.0,100.0,1.790960004825E12,-1.0,1.7909600048555E12,2187.5
113,1.0592034E7,1.0592034E7,323243.22509765625,1.0592034E7,0.9300239234449761,-1555.0,9.761363636363637,16321.0,0.06220095693779904,-104.0,-0.00911592707258342,-7.0,0.017199862401100795,30.0,0.016339869281045753,0.0,0.31784107946026985,-212.0,0.7151424287856072,-477.0,2.758620689655172,-1840.0,4199.267399267399,2866.0,100.0,0.0,100.0,1.790960004825E12,-1.0,1.7909600048750312E12,2207.03125
114,1.0592674E7,1.0592674E7,323262.75634765625,1.0592674E7,0.922846889952153,-1543.0,9.758373205741627,16316.0,0.05980861244019139,-100.0,0.008599931200550397,-9.0,0.016511867905056765,30.0,-0.0010319917440660498,2.0,0.3043478260869565,-203.0,0.7226386806596702,-482.0,2.75712143928036,-1839.0,4200.7326007326,2867.0,100.0,0.0,100.0,1.790960004825E12,-1.0,1.7909600048945625E12,2226.5625
115,1.0593314E7,1.0593314E7,323282.28759765625,1.0593314E7,0.9306220095693779,-1556.0,9.758373205741627,16316.0,0.056818181818181816,-95.0,-0.02717578259373925,-5.0,0.007567939456484354,29.0,-6.879944960440331E-4,2.0,0.3103448275862069,-207.0,0.7136431784107946,-476.0,2.75712143928036,-1839.0,4199.267399267399,2866.0,100.0,0.0,100.0,1.790960004825E12,-1.0,1.7909600049140938E12,2246.09375
116,1.0593954E7,1.0593954E7,323301.81884765625,1.0593954E7,0.9282296650717703,-1552.0,9.756578947368421,16313.0,0.057416267942583726,-96.0,-0.03491572067423461,-4.0,0.01616787065703475,30.0,-5.159958720330239E-4,2.0,0.3088455772113943,-206.0,0.7076461769115442,-472.0,2.7541229385307346,-1837.0,4197.802197802198,2865.0,100.0,0.0,100.0,1.790960004947E12,-1.0,1.790960004933625E12,2265.625
117,1.0594594E7,1.0594594E7,323321.35009765625,1.0594594E7,0.9258373205741627,-1548.0,9.760765550239235,16320.0,0.0604066985645933,-101.0,6.879944960440294E-4,-8.0,0.007051943584451332,29.0,0.007911936704506364,1.0,0.3058470764617691,-204.0,0.7211394302848575,-481.0,2.758620689655172,-1840.0,4199.267399267399,2866.0,100.0,0.0,100.0,1.790960004947E12,-1.0,1.7909600049531562E12,2285.15625
118,1.0595234E7,1.0595234E7,323340.88134765625,1.0595234E7,0.9282296650717703,-1552.0,9.758373205741627,16316.0,0.05980861244019139,-100.0,0.018403852769177845,-10.0,0.03336773305813555,32.0,0.03474372205022361,-2.0,0.3088455772113943,-206.0,0.7211394302848575,-481.0,2.758620689655172,-1840.0,4200.7326007326,2867.0,100.0,0.0,100.0,1.790960004947E12,-1.0,1.7909600049726875E12,2304.6875
119,1.0595874E7,1.0595874E7,323360.41259765625,1.0595874E7,0.9252392344497608,-1547.0,9.756578947368421,16313.0,0.06399521531100479,-107.0,-0.008083935328517375,-7.0,0.023563811489508098,31.0,-0.0010319917440660478,2.0,0.31334332833583206,-209.0,0.7166416791604198,-478.0,2.7541229385307346,-1837.0,4197.802197802198,2865.0,100.0,0.0,100.0,1.790960004947E12,-1.0,1.7909600049922188E12,2324.21875
120,1.0596514E7,1.0596514E7,323379.94384765625,1.0596514E7,0.9306220095693779,-1556.0,9.76255980861244,16323.0,0.061602870813397125,-103.0,-0.016683866529067774,-6.0,-0.01221190230478155,27.0,0.016683866529067767,0.0,0.3058470764617691,-204.0,0.7106446776611693,-474.0,2.755622188905547,-1838.0,4197.802197802198,2865.0,100.0,0.0,100.0,1.790960004947E12,-1.0,1.79096000501175E12,2343.75
121,1.0597154E7,1.0597154E7,323399.47509765625,1.0597154E7,0.9282296650717703,-1552.0,9.760765550239235,16320.0,0.05801435406698564,-97.0,0.0012039903680770591,-8.0,0.01547987616099072,30.0,0.016339869281045753,0.0,0.3073463268365817,-205.0,0.7166416791604198,-478.0,2.76311844077961,-1843.0,4199.267399267399,2866.0,100.0,0.0,100.0,1.790960004947E12,-1.0,1.7909600050312812E12,2363.28125
122,1.0597794E7,1.0597794E7,323419.00634765625,1.0597794E7,0.9276315789473684,-1551.0,9.757775119617225,16315.0,0.05980861244019139,-100.0,0.001031991744066044,-8.0,-0.010663914688682486,27.0,0.007051943584451326,1.0,0.3043478260869565,-203.0,0.7211394302848575,-481.0,2.758620689655172,-1840.0,4197.802197802198,2865.0,100.0,0.0,100.0,1.790960005068E12,-1.0,1.7909600050508125E12,2382.8125
123,1.0598434E7,1.0598434E7,323438.53759765625,1.0598434E7,0.9282296650717703,-1552.0,9.758373205741627,16316.0,0.05442583732057416,-91.0,-0.016511867905056765,-6.0,0.006707946336429317,29.0,-0.010663914688682491,3.0,0.31334332833583206,-209.0,0.7226386806596702,-482.0,2.7661169415292353,-1845.0,4197.802197802198,2865.0,100.0,0.0,100.0,1.790960005068E12,-1.0,1.7909600050703438E12,2402.34375
124,1.0599074E7,1.0599074E7,323458.06884765625,1.0599074E7,0.9264354066985646,-1549.0,9.761363636363637,16321.0,0.053229665071770335,-89.0,-0.016167870657034743,-6.0,0.03302373581011353,32.0,-0.010319917440660475,3.0,0.3103448275862069,-207.0,0.7226386806596702,-482.0,2.7616191904047973,-1842.0,4197.802197802198,2865.0,100.0,0.0,100.0,1.790960005068E12,-1.0,1.790960005089875E12,2421.875
125,1.0599714E7,1.0599714E7,323477.60009765625,1.0599714E7,0.9276315789473684,-1551.0,9.756578947368421,16313.0,0.05562200956937799,-93.0,-0.03422772617819058,-4.0,-0.020295837633298928,26.0,-0.009803921568627453,3.0,0.3103448275862069,-207.0,0.7151424287856072,-477.0,2.7616191904047973,-1842.0,4199.267399267399,2866.0,100.0,0.0,100.0,1.790960005068E12,-1.0,1.7909600051094062E12,2441.40625
126,1.0600354E7,1.0600354E7,323497.13134765625,1.0600354E7,0.923444976076555,-1544.0,9.760765550239235,16320.0,0.06279904306220095,-105.0,0.027519779841761273,-11.0,0.0149638802889577,30.0,0.01651186790505676,0.0,0.31634182908545727,-211.0,0.712143928035982,-475.0,2.764617691154423,-1844.0,4200.7326007326,2867.0,100.0,0.0,100.0,1.790960005068E12,-1.0,1.7909600051289375E12,2460.9375
127,1.0600994E7,1.0600994E7,323516.66259765625,1.0600994E7,0.9240430622009569,-1545.0,9.760167464114833,16319.0,0.05442583732057416,-91.0,-0.01702786377708979,-6.0,-0.011695906432748529,27.0,0.007223942208462335,1.0,0.3073463268365817,-205.0,0.7166416791604198,-478.0,2.7616191904047973,-1842.0,4199.267399267399,2866.0,100.0,0.0,100.0,1.790960005068E12,-1.0,1.7909600051484688E12,2480.46875
128,1.0601634E7,1.0601634E7,323536.19384765625,1.0601634E7,0.9282296650717703,-1552.0,9.758971291866029,16317.0,0.050837320574162674,-85.0,-0.02648778809769522,-5.0,-0.011351909184726514,27.0,0.024423804609563126,-1.0,0.3073463268365817,-205.0,0.712143928035982,-475.0,2.760119940029985,-1841.0,4200.7326007326,2867.0,100.0,0.0,100.0,1.790960005182E12,-1.0,1.790960005168E12,2500.0
129,1.0602274E7,1.0602274E7,323555.72509765625,1.0602274E7,0.9258373205741627,-1548.0,9.763157894736842,16324.0,0.05801435406698564,-97.0,-0.016683866529067774,-6.0,0.04179566563467493,33.0,0.0065359477124183,1.0,0.3118440779610195,-208.0,0.7136431784107946,-476.0,2.7616191904047973,-1842.0,4200.7326007326,2867.0,100.0,0.0,100.0,1.790960005182E12,-1.0,1.7909600051875312E12,2519.53125
130,1.0602914E7,1.0602914E7,323575.25634765625,1.0602914E7,0.9258373205741627,-1548.0,9.760765550239235,16320.0,0.057416267942583726,-96.0,0.009803921568627449,-9.0,-0.003267973856209139,28.0,-0.0020639834881320956,2.0,0.3058470764617691,-204.0,0.7151424287856072,-477.0,2.76311844077961,-1843.0,4200.7326007326,2867.0,100.0,0.0,100.0,1.790960005182E12,-1.0,1.7909600052070625E12,2539.0625
131,1.0603554E7,1.0603554E7,323594.78759765625,1.0603554E7,0.9240430622009569,-1545.0,9.758971291866029,16317.0,0.057416267942583726,-96.0,-0.01633986928104575,-6.0,0.0056759545923632726,29.0,-0.037151702786377715,6.0,0.3088455772113943,-206.0,0.7136431784107946,-476.0,2.764617691154423,-1844.0,4200.7326007326,2867.0,100.0,0.0,100.0,1.790960005182E12,-1.0,1.7909600052265938E12,2558.59375
132,1.0604194E7,1.0604194E7,323614.31884765625,1.0604194E7,0.9276315789473684,-1551.0,9.758971291866029,16317.0,0.05921052631578947,-99.0,0.010663914688682493,-9.0,-0.02992776057791537,25.0,-0.0012039903680770572,2.0,0.30134932533733133,-201.0,0.7211394302848575,-481.0,2.760119940029985,-1841.0,4200.7326007326,2867.0,100.0,0.0,100.0,1.790960005182E12,-1.0,1.790960005246125E12,2578.125
133,1.0604834E7,1.0604834E7,323633.85009765625,1.0604834E7,0.9282296650717703,-1552.0,9.75598086124402,16312.0,0.05562200956937799,-93.0,0.019607843137254905,-10.0,0.014447884416924678,30.0,-0.0012039903680770572,2.0,0.3028485757121439,-202.0,0.7211394302848575,-481.0,2.755622188905547,-1838.0,4199.267399267399,2866.0,100.0,0.0,100.0,1.790960005182E12,-1.0,1.7909600052656562E12,2597.65625
134,1.0605474E7,1.0605474E7,323653.38134765625,1.0605474E7,0.9240430622009569,-1545.0,9.758373205741627,16316.0,0.0645933014354067,-108.0,-0.006363949088407294,-7.0,-0.012383900928792558,27.0,-0.018919848641210872,4.0,0.31334332833583206,-209.0,0.7166416791604198,-478.0,2.752623688155922,-1836.0,4197.802197802198,2865.0,100.0,0.0,100.0,1.790960005308E12,-1.0,1.7909600052851875E12,2617.1875
135,1.0606114E7,1.0606114E7,323672.91259765625,1.0606114E7,0.9240430622009569,-1545.0,9.76255980861244,16323.0,0.05980861244019139,-100.0,0.03801169590643275,-12.0,-0.03887168902648778,24.0,-0.0013759889920880624,2.0,0.3073463268365817,-205.0,0.7166416791604198,-478.0,2.75712143928036,-1839.0,4200.7326007326,2867.0,100.0,0.0,100.0,1.790960005308E12,-1.0,1.7909600053047188E12,2636.71875
136,1.0606754E7,1.0606754E7,323692.44384765625,1.0606754E7,0.9252392344497608,-1547.0,9.763755980861244,16325.0,0.0604066985645933,-101.0,0.037495700034399726,-12.0,-0.020811833505331948,26.0,-0.010319917440660475,3.0,0.3088455772113943,-206.0,0.7151424287856072,-477.0,2.758620689655172,-1840.0,4202.197802197802,2868.0,100.0,0.0,100.0,1.790960005308E12,-1.0,1.79096000532425E12,2656.25
137,1.0607394E7,1.0607394E7,323711.97509765625,1.0607394E7,0.9252392344497608,-1547.0,9.756578947368421,16313.0,0.050239234449760764,-84.0,0.0015479876160990737,-8.0,-0.020295837633298928,26.0,-0.0012039903680770552,2.0,0.3118440779610195,-208.0,0.7106446776611693,-474.0,2.760119940029985,-1841.0,4199.267399267399,2866.0,100.0,0.0,100.0,1.790960005308E12,-1.0,1.7909600053437812E12,2675.78125
138,1.0608034E7,1.0608034E7,323731.50634765625,1.0608034E7,0.9282296650717703,-1552.0,9.763755980861244,16325.0,0.05921052631578947,-99.0,0.027863777089783288,-11.0,0.006191950464396295,29.0,-0.027691778465772275,5.0,0.3118440779610195,-208.0,0.7166416791604198,-478.0,2.755622188905547,-1838.0,4199.267399267399,2866.0,100.0,0.0,100.0,1.790960005308E12,-1.0,1.7909600053633125E12,2695.3125
139,1.0608674E7,1.0608674E7,323751.03759765625,1.0608674E7,0.9204545454545454,-1539.0,9.760167464114833,16319.0,0.05562200956937799,-93.0,-0.01633986928104575,-6.0,-0.0027519779841761174,28.0,0.016339869281045753,0.0,0.3118440779610195,-208.0,0.712143928035982,-475.0,2.75712143928036,-1839.0,4197.802197802198,2865.0,100.0,0.0,100.0,1.790960005308E12,-1.0,1.7909600053828438E12,2714.84375
140,1.0609314E7,1.0609314E7,323770.56884765625,1.0609314E7,0.916267942583732,-1532.0,9.761363636363637,16321.0,0.06220095693779904,-104.0,0.0013759889920880663,-8.0,-0.019779841761265904,26.0,0.024423804609563126,-1.0,0.3103448275862069,-207.0,0.7181409295352323,-479.0,2.755622188905547,-1838.0,4199.267399267399,2866.0,100.0,0.0,100.0,1.790960005428E12,-1.0,1.790960005402375E12,2734.375
141,1.0609954E7,1.0609954E7,323790.10009765625,1.0609954E7,0.9258373205741627,-1548.0,9.76255980861244,16323.0,0.05921052631578947,-99.0,-0.007395940832473339,-7.0,0.01547987616099072,30.0,0.024251805985552117,-1.0,0.3103448275862069,-207.0,0.7196401799100449,-480.0,2.764617691154423,-1844.0,4200.7326007326,2867.0,100.0,0.0,100.0,1.790960005428E12,-1.0,1.7909600054219062E12,2753.90625
142,1.0610594E7,1.0610594E7,323809.63134765625,1.0610594E7,0.9282296650717703,-1552.0,9.76255980861244,16323.0,0.05921052631578947,-99.0,-0.025455796353629177,-5.0,-0.01943584451324389,26.0,-0.002235982112143103,2.0,0.3043478260869565,-203.0,0.7166416791604198,-478.0,2.7616191904047973,-1842.0,4199.267399267399,2866.0,100.0,0.0,100.0,1.790960005428E12,-1.0,1.7909600054414375E12,2773.4375
143,1.0611234E7,1.0611234E7,323829.16259765625,1.0611234E7,0.9276315789473684,-1551.0,9.757775119617225,16315.0,0.05980861244019139,-100.0,0.027003783969728242,-11.0,0.0073959408324733465,29.0,0.02407980736154111,-1.0,0.3058470764617691,-204.0,0.7181409295352323,-479.0,2.7661169415292353,-1845.0,4197.802197802198,2865.0,100.0,0.0,100.0,1.790960005428E12,-1.0,1.7909600054609688E12,2792.96875
144,1.0611874E7,1.0611874E7,323848.69384765625,1.0611874E7,0.9312200956937798,-1557.0,9.76555023923445,16328.0,0.05980861244019139,-100.0,0.009631922944616442,-9.0,-0.04609563123495012,23.0,-0.028723770209838323,5.0,0.3088455772113943,-206.0,0.712143928035982,-475.0,2.755622188905547,-1838.0,4200.7326007326,2867.0,100.0,0.0,100.0,1.790960005428E12,-1.0,1.7909600054805E12,2812.5
145,1.0612514E7,1.0612514E7,323868.22509765625,1.0612514E7,0.9306220095693779,-1556.0,9.760765550239235,16320.0,0.050837320574162674,-85.0,0.03525971792225663,-12.0,-6.879944960440294E-4,28.0,-0.010663914688682491,3.0,0.3103448275862069,-207.0,0.7196401799100449,-480.0,2.760119940029985,-1841.0,4199.267399267399,2866.0,100.0,0.0,100.0,1.790960005428E12,-1.0,1.7909600055000312E12,2832.03125
146,1.0613154E7,1.0613154E7,323887.75634765625,1.0613154E7,0.9210526315789473,-1540.0,9.761363636363637,16321.0,0.05921052631578947,-99.0,-3.439972480220147E-4,-8.0,-0.009459924320605434,27.0,-0.01926384588923289,4.0,0.3103448275862069,-207.0,0.7196401799100449,-480.0,2.758620689655172,-1840.0,4199.267399267399,2866.0,100.0,0.0,100.0,1.790960005543E12,-1.0,1.7909600055195625E12,2851.5625
147,1.0613794E7,1.0613794E7,323907.28759765625,1.0613794E7,0.9276315789473684,-1551.0,9.760765550239235,16320.0,0.05980861244019139,-100.0,-0.01754385964912281,-6.0,0.00842793257653939,29.0,-0.0010319917440660478,2.0,0.3073463268365817,-205.0,0.7196401799100449,-480.0,2.76311844077961,-1843.0,4199.267399267399,2866.0,100.0,0.0,100.0,1.790960005543E12,-1.0,1.7909600055390938E12,2871.09375
148,1.0614434E7,1.0614434E7,323926.81884765625,1.0614434E7,0.923444976076555,-1544.0,9.758971291866029,16317.0,0.05502392344497607,-92.0,1.7199862401100734E-4,-8.0,0.008255933952528383,29.0,-0.009803921568627453,3.0,0.3103448275862069,-207.0,0.7136431784107946,-476.0,2.758620689655172,-1840.0,4200.7326007326,2867.0,100.0,0.0,100.0,1.790960005543E12,-1.0,1.790960005558625E12,2890.625
149,1.0615074E7,1.0615074E7,323946.35009765625,1.0615074E7,0.9258373205741627,-1548.0,9.76255980861244,16323.0,0.061602870813397125,-103.0,0.0,-8.0,0.01685586515307878,30.0,-0.018231854145166843,4.0,0.31634182908545727,-211.0,0.7151424287856072,-477.0,2.752623688155922,-1836.0,4199.267399267399,2866.0,100.0,0.0,100.0,1.790960005543E12,-1.0,1.7909600055781562E12,2910.15625
150,1.0615714E7,1.0615714E7,323965.88134765625,1.0615714E7,0.9210526315789473,-1540.0,9.758373205741627,16316.0,0.05921052631578947,-99.0,-0.017371861025111804,-6.0,-0.009459924320605434,27.0,0.02562779497764018,-1.0,0.3058470764617691,-204.0,0.7151424287856072,-477.0,2.755622188905547,-1838.0,4199.267399267399,2866.0,100.0,0.0,100.0,1.790960005543E12,-1.0,1.7909600055976875E12,2929.6875
151,1.0616354E7,1.0616354E7,323985.41259765625,1.0616354E7,0.9306220095693779,-1556.0,9.75598086124402,16312.0,0.05502392344497607,-92.0,-0.01702786377708979,-6.0,0.017199862401100795,30.0,0.03474372205022361,-2.0,0.3103448275862069,-207.0,0.7136431784107946,-476.0,2.758620689655172,-1840.0,4200.7326007326,2867.0,100.0,0.0,100.0,1.790960005543E12,-1.0,1.7909600056172188E12,2949.21875
152,1.0616994E7,1.0616994E7,324004.94384765625,1.0616994E7,0.9330143540669856,-1560.0,9.760167464114833,16319.0,0.05263157894736842,-88.0,-0.043343653250774,-3.0,-0.009803921568627449,27.0,0.007051943584451327,1.0,0.3073463268365817,-205.0,0.7241379310344828,-483.0,2.758620689655172,-1840.0,4199.267399267399,2866.0,100.0,0.0,100.0,1.790960005668E12,-1.0,1.79096000563675E12,2968.75
153,1.0617634E7,1.0617634E7,324024.47509765625,1.0617634E7,0.9282296650717703,-1552.0,9.758373205741627,16316.0,0.0604066985645933,-101.0,0.0194358445132439,-10.0,0.016511867905056765,30.0,0.006535947712418302,1.0,0.3028485757121439,-202.0,0.7166416791604198,-478.0,2.755622188905547,-1838.0,4202.197802197802,2868.0,100.0,0.0,100.0,1.790960005668E12,-1.0,1.7909600056562812E12,2988.28125
154,1.0618274E7,1.0618274E7,324044.00634765625,1.0618274E7,0.9252392344497608,-1547.0,9.761363636363637,16321.0,0.05980861244019139,-100.0,0.019607843137254905,-10.0,0.01685586515307878,30.0,-0.011179910560715515,3.0,0.3088455772113943,-206.0,0.7241379310344828,-483.0,2.755622188905547,-1838.0,4199.267399267399,2866.0,100.0,0.0,100.0,1.790960005668E12,-1.0,1.7909600056758125E12,3007.8125
155,1.0618914E7,1.0618914E7,324063.53759765625,1.0618914E7,0.9168660287081339,-1533.0,9.758971291866029,16317.0,0.05921052631578947,-99.0,0.01014791881664947,-9.0,-0.009631922944616442,27.0,0.006707946336429309,1.0,0.3118440779610195,-208.0,0.7166416791604198,-478.0,2.758620689655172,-1840.0,4199.267399267399,2866.0,100.0,0.0,100.0,1.790960005668E12,-1.0,1.7909600056953438E12,3027.34375
156,1.0619554E7,1.0619554E7,324083.06884765625,1.0619554E7,0.9258373205741627,-1548.0,9.758373205741627,16316.0,0.056818181818181816,-95.0,-0.016167870657034743,-6.0,-0.009803921568627449,27.0,0.024251805985552117,-1.0,0.3148425787106447,-210.0,0.7166416791604198,-478.0,2.758620689655172,-1840.0,4199.267399267399,2866.0,100.0,0.0,100.0,1.790960005668E12,-1.0,1.790960005714875E12,3046.875
157,1.0620194E7,1.0620194E7,324102.60009765625,1.0620194E7,0.9306220095693779,-1556.0,9.760765550239235,16320.0,0.06220095693779904,-104.0,0.037151702786377715,-12.0,-0.0013759889920880587,28.0,-0.011179910560715515,3.0,0.3028485757121439,-202.0,0.7166416791604198,-478.0,2.75712143928036,-1839.0,4200.7326007326,2867.0,100.0,0.0,100.0,1.790960005668E12,-1.0,1.7909600057344062E12,3066.40625
158,1.0620834E7,1.0620834E7,324122.13134765625,1.0620834E7,0.9282296650717703,-1552.0,9.757775119617225,16315.0,0.05980861244019139,-100.0,0.01014791881664947,-9.0,-0.0018919848641210807,28.0,0.03302373581011352,-2.0,0.31334332833583206,-209.0,0.7181409295352323,-479.0,2.760119940029985,-1841.0,4200.7326007326,2867.0,100.0,0.0,100.0,1.790960005668E12,-1.0,1.7909600057539375E12,3085.9375
159,1.0621474E7,1.0621474E7,324141.66259765625,1.0621474E7,0.9288277511961722,-1553.0,9.760167464114833,16319.0,0.061602870813397125,-103.0,0.009631922944616442,-9.0,0.006707946336429317,29.0,-0.012039903680770554,3.0,0.3148425787106447,-210.0,0.7166416791604198,-478.0,2.7661169415292353,-1845.0,4199.267399267399,2866.0,100.0,0.0,100.0,1.790960005785E12,-1.0,1.7909600057734688E12,3105.46875
160,1.0622114E7,1.0622114E7,324161.19384765625,1.0622114E7,0.9258373205741627,-1548.0,9.756578947368421,16313.0,0.06399521531100479,-107.0,0.008943928448572412,-9.0,0.0065359477124183095,29.0,-0.012211902304781563,3.0,0.3028485757121439,-202.0,0.7196401799100449,-480.0,2.7616191904047973,-1842.0,4197.802197802198,2865.0,100.0,0.0,100.0,1.790960005785E12,-1.0,1.790960005793E12,3125.0
161,1.0622754E7,1.0622754E7,324180.72509765625,1.0622754E7,0.9258373205741627,-1548.0,9.760765550239235,16320.0,0.05980861244019139,-100.0,-0.01685586515307878,-6.0,0.006191950464396295,29.0,0.0053319573443412465,1.0,0.3028485757121439,-202.0,0.7196401799100449,-480.0,2.76311844077961,-1843.0,4199.267399267399,2866.0,100.0,0.0,100.0,1.790960005785E12,-1.0,1.7909600058125312E12,3144.53125
162,1.0623394E7,1.0623394E7,324200.25634765625,1.0623394E7,0.9258373205741627,-1548.0,9.760765550239235,16320.0,0.050837320574162674,-85.0,0.009631922944616442,-9.0,-0.029583763329893355,25.0,0.0053319573443412465,1.0,0.3073463268365817,-205.0,0.7271364317841079,-485.0,2.755622188905547,-1838.0,4200.7326007326,2867.0,100.0,0.0,100.0,1.790960005785E12,-1.0,1.7909600058320625E12,3164.0625
163,1.0624034E7,1.0624034E7,324219.78759765625,1.0624034E7,0.923444976076555,-1544.0,9.761363636363637,16321.0,0.06220095693779904,-104.0,0.009803921568627449,-9.0,-0.0024079807361541026,28.0,-0.003783969728242173,2.0,0.3058470764617691,-204.0,0.7166416791604198,-478.0,2.758620689655172,-1840.0,4200.7326007326,2867.0,100.0,0.0,100.0,1.790960005785E12,-1.0,1.7909600058515938E12,3183.59375
164,1.0624674E7,1.0624674E7,324239.31884765625,1.0624674E7,0.9258373205741627,-1548.0,9.756578947368421,16313.0,0.05980861244019139,-100.0,0.036291709666322676,-12.0,-0.019951840385276913,26.0,0.004815961472308223,1.0,0.3043478260869565,-203.0,0.7211394302848575,-481.0,2.760119940029985,-1841.0,4199.267399267399,2866.0,100.0,0.0,100.0,1.790960005785E12,-1.0,1.790960005871125E12,3203.125
165,1.0625314E7,1.0625314E7,324258.85009765625,1.0625314E7,0.923444976076555,-1544.0,9.758373205741627,16316.0,0.05562200956937799,-93.0,0.00911592707258342,-9.0,0.03336773305813555,32.0,-0.003783969728242173,2.0,0.3103448275862069,-207.0,0.7151424287856072,-477.0,2.752623688155922,-1836.0,4199.267399267399,2866.0,100.0,0.0,100.0,1.790960005908E12,-1.0,1.7909600058906562E12,3222.65625
166,1.0625954E7,1.0625954E7,324278.38134765625,1.0625954E7,0.923444976076555,-1544.0,9.756578947368421,16313.0,0.057416267942583726,-96.0,3.439972480220147E-4,-8.0,0.01547987616099072,30.0,-0.003783969728242173,2.0,0.3043478260869565,-203.0,0.7166416791604198,-478.0,2.7691154422788604,-1847.0,4200.7326007326,2867.0,100.0,0.0,100.0,1.790960005908E12,-1.0,1.7909600059101875E12,3242.1875
167,1.0626594E7,1.0626594E7,324297.91259765625,1.0626594E7,0.9282296650717703,-1552.0,9.763157894736842,16324.0,0.05980861244019139,-100.0,-1.7199862401100734E-4,-8.0,-0.0022359821121430952,28.0,0.013759889920880636,0.0,0.3118440779610195,-208.0,0.7211394302848575,-481.0,2.7691154422788604,-1847.0,4197.802197802198,2865.0,100.0,0.0,100.0,1.790960005908E12,-1.0,1.7909600059297188E12,3261.71875
168,1.0627234E7,1.0627234E7,324317.44384765625,1.0627234E7,0.9288277511961722,-1553.0,9.758373205741627,16316.0,0.057416267942583726,-96.0,-0.02717578259373925,-5.0,-0.0018919848641210807,28.0,0.013415892672858618,0.0,0.31334332833583206,-209.0,0.7166416791604198,-478.0,2.764617691154423,-1844.0,4200.7326007326,2867.0,100.0,0.0,100.0,1.790960005908E12,-1.0,1.79096000594925E12,3281.25
169,1.0627874E7,1.0627874E7,324336.97509765625,1.0627874E7,0.9282296650717703,-1552.0,9.758373205741627,16316.0,0.06220095693779904,-104.0,-0.026659786721706227,-5.0,0.007051943584451332,29.0,0.004471964224286206,1.0,0.3118440779610195,-208.0,0.7196401799100449,-480.0,2.760119940029985,-1841.0,4199.267399267399,2866.0,100.0,0.0,100.0,1.790960005908E12,-1.0,1.7909600059687812E12,3300.78125
170,1.0628514E7,1.0628514E7,324356.50634765625,1.0628514E7,0.9306220095693779,-1556.0,9.758971291866029,16317.0,0.057416267942583726,-96.0,-0.025799793601651192,-5.0,-0.009975920192638457,27.0,-0.021327829377364983,4.0,0.29985007496251875,-200.0,0.7196401799100449,-480.0,2.75712143928036,-1839.0,4200.7326007326,2867.0,100.0,0.0,100.0,1.790960005908E12,-1.0,1.7909600059883125E12,3320.3125
171,1.0629154E7,1.0629154E7,324376.03759765625,1.0629154E7,0.9282296650717703,-1552.0,9.760167464114833,16319.0,0.05921052631578947,-99.0,-0.025455796353629177,-5.0,0.008255933952528383,29.0,-0.012211902304781563,3.0,0.3118440779610195,-208.0,0.712143928035982,-475.0,2.76311844077961,-1843.0,4199.267399267399,2866.0,100.0,0.0,100.0,1.790960006022E12,-1.0,1.7909600060078438E12,3339.84375
172,1.0629794E7,1.0629794E7,324395.56884765625,1.0629794E7,0.9210526315789473,-1540.0,9.761363636363637,16321.0,0.05562200956937799,-93.0,-0.00773993808049536,-7.0,0.03422772617819058,32.0,-0.020467836257309947,4.0,0.3073463268365817,-205.0,0.7136431784107946,-476.0,2.76311844077961,-1843.0,4200.7326007326,2867.0,100.0,0.0,100.0,1.790960006022E12,-1.0,1.790960006027375E12,3359.375
173,1.0630434E7,1.0630434E7,324415.10009765625,1.0630434E7,0.9282296650717703,-1552.0,9.75598086124402,16312.0,0.05801435406698564,-97.0,-0.01633986928104575,-6.0,0.007567939456484354,29.0,0.02407980736154111,-1.0,0.3043478260869565,-203.0,0.7076461769115442,-472.0,2.76311844077961,-1843.0,4200.7326007326,2867.0,100.0,0.0,100.0,1.790960006022E12,-1.0,1.7909600060469062E12,3378.90625
174,1.0631074E7,1.0631074E7,324434.63134765625,1.0631074E7,0.9258373205741627,-1548.0,9.758373205741627,16316.0,0.06220095693779904,-104.0,0.019091847265221885,-10.0,-0.02786377708978328,25.0,0.01496388028895769,0.0,0.3043478260869565,-203.0,0.7166416791604198,-478.0,2.7616191904047973,-1842.0,4200.7326007326,2867.0,100.0,0.0,100.0,1.790960006022E12,-1.0,1.7909600060664375E12,3398.4375
175,1.0631714E7,1.0631714E7,324454.16259765625,1.0631714E7,0.9258373205741627,-1548.0,9.756578947368421,16313.0,0.06698564593301436,-112.0,0.018403852769177845,-10.0,-0.02717578259373925,25.0,-0.0030959752321981417,2.0,0.31334332833583206,-209.0,0.7196401799100449,-480.0,2.760119940029985,-1841.0,4202.197802197802,2868.0,100.0,0.0,100.0,1.790960006022E12,-1.0,1.7909600060859688E12,3417.96875
176,1.0632354E7,1.0632354E7,324473.69384765625,1.0632354E7,0.9264354066985646,-1549.0,9.760765550239235,16320.0,0.05502392344497607,-92.0,1.7199862401100734E-4,-8.0,-0.00842793257653939,27.0,-0.012039903680770554,3.0,0.3103448275862069,-207.0,0.7196401799100449,-480.0,2.764617691154423,-1844.0,4202.197802197802,2868.0,100.0,0.0,100.0,1.790960006022E12,-1.0,1.7909600061055E12,3437.5
177,1.0632994E7,1.0632994E7,324493.22509765625,1.0632994E7,0.9282296650717703,-1552.0,9.757775119617225,16315.0,0.05980861244019139,-100.0,-5.15995872033022E-4,-8.0,-0.008599931200550397,27.0,0.014275885792913659,0.0,0.3073463268365817,-205.0,0.7091454272863568,-473.0,2.764617691154423,-1844.0,4199.267399267399,2866.0,100.0,0.0,100.0,1.790960006156E12,-1.0,1.7909600061250312E12,3457.03125
178,1.0633634E7,1.0633634E7,324512.75634765625,1.0633634E7,0.9258373205741627,-1548.0,9.758373205741627,16316.0,0.06279904306220095,-105.0,0.0,-8.0,0.009459924320605434,29.0,0.005503955968352256,1.0,0.3058470764617691,-204.0,0.712143928035982,-475.0,2.7616191904047973,-1842.0,4200.7326007326,2867.0,100.0,0.0,100.0,1.790960006156E12,-1.0,1.7909600061445625E12,3476.5625
179,1.0634274E7,1.0634274E7,324532.28759765625,1.0634274E7,0.9282296650717703,-1552.0,9.763755980861244,16325.0,0.061602870813397125,-103.0,-0.00911592707258342,-7.0,-0.0259717922256622,25.0,-0.038355693154454765,6.0,0.3058470764617691,-204.0,0.7241379310344828,-483.0,2.75712143928036,-1839.0,4199.267399267399,2866.0,100.0,0.0,100.0,1.790960006156E12,-1.0,1.7909600061640938E12,3496.09375
180,1.0634914E7,1.0634914E7,324551.81884765625,1.0634914E7,0.9252392344497608,-1547.0,9.755382775119617,16311.0,0.05980861244019139,-100.0,-0.01823185414516684,-6.0,0.01823185414516684,30.0,-0.0020639834881320956,2.0,0.3103448275862069,-207.0,0.7151424287856072,-477.0,2.760119940029985,-1841.0,4197.802197802198,2865.0,100.0,0.0,100.0,1.790960006156E12,-1.0,1.790960006183625E12,3515.625
181,1.0635554E7,1.0635554E7,324571.35009765625,1.0635554E7,0.9300239234449761,-1555.0,9.761363636363637,16321.0,0.05801435406698564,-97.0,-0.03577571379428965,-4.0,-0.007567939456484354,27.0,-0.010663914688682491,3.0,0.31334332833583206,-209.0,0.7241379310344828,-483.0,2.7616191904047973,-1842.0,4200.7326007326,2867.0,100.0,0.0,100.0,1.790960006156E12,-1.0,1.7909600062031562E12,3535.15625
182,1.0636194E7,1.0636194E7,324590.88134765625,1.0636194E7,0.923444976076555,-1544.0,9.758373205741627,16316.0,0.05980861244019139,-100.0,0.008943928448572412,-9.0,0.0013759889920880587,28.0,0.015823873409012732,0.0,0.3088455772113943,-206.0,0.7151424287856072,-477.0,2.75712143928036,-1839.0,4200.7326007326,2867.0,100.0,0.0,100.0,1.790960006156E12,-1.0,1.7909600062226875E12,3554.6875
183,1.0636834E7,1.0636834E7,324610.41259765625,1.0636834E7,0.9276315789473684,-1551.0,9.758373205741627,16316.0,0.06220095693779904,-104.0,-3.439972480220147E-4,-8.0,0.0015479876160990659,28.0,0.006019951840385278,1.0,0.3103448275862069,-207.0,0.7196401799100449,-480.0,2.764617691154423,-1844.0,4199.267399267399,2866.0,100.0,0.0,100.0,1.79096000626E12,-1.0,1.7909600062422188E12,3574.21875
184,1.0637474E7,1.0637474E7,324629.94384765625,1.0637474E7,0.9288277511961722,-1553.0,9.757775119617225,16315.0,0.050239234449760764,-84.0,0.008599931200550397,-9.0,0.001031991744066044,28.0,-0.002923976608187136,2.0,0.31634182908545727,-211.0,0.7196401799100449,-480.0,2.76311844077961,-1843.0,4199.267399267399,2866.0,100.0,0.0,100.0,1.79096000626E12,-1.0,1.79096000626175E12,3593.75
185,1.0638114E7,1.0638114E7,324649.47509765625,1.0638114E7,0.9264354066985646,-1549.0,9.760167464114833,16319.0,0.05203349282296651,-87.0,-0.026315789473684216,-5.0,-0.0073959408324733465,27.0,-0.002923976608187136,2.0,0.3043478260869565,-203.0,0.7226386806596702,-482.0,2.7616191904047973,-1842.0,4197.802197802198,2865.0,100.0,0.0,100.0,1.79096000626E12,-1.0,1.7909600062812812E12,3613.28125
186,1.0638754E7,1.0638754E7,324669.00634765625,1.0638754E7,0.9282296650717703,-1552.0,9.760765550239235,16320.0,0.05801435406698564,-97.0,0.00911592707258342,-9.0,-0.0073959408324733465,27.0,-0.012039903680770556,3.0,0.31784107946026985,-212.0,0.7166416791604198,-478.0,2.760119940029985,-1841.0,4197.802197802198,2865.0,100.0,0.0,100.0,1.79096000626E12,-1.0,1.7909600063008125E12,3632.8125
187,1.0639394E7,1.0639394E7,324688.53759765625,1.0639394E7,0.9240430622009569,-1545.0,9.760765550239235,16320.0,0.053229665071770335,-89.0,-0.025455796353629177,-5.0,8.599931200550366E-4,28.0,-0.02063983488132095,4.0,0.3103448275862069,-207.0,0.7166416791604198,-478.0,2.755622188905547,-1838.0,4199.267399267399,2866.0,100.0,0.0,100.0,1.79096000626E12,-1.0,1.7909600063203438E12,3652.34375
188,1.0640034E7,1.0640034E7,324708.06884765625,1.0640034E7,0.9252392344497608,-1547.0,9.760765550239235,16320.0,0.05502392344497607,-92.0,-0.015479876160990714,-6.0,0.026831785345717236,31.0,-0.020467836257309947,4.0,0.3073463268365817,-205.0,0.7091454272863568,-473.0,2.7616191904047973,-1842.0,4197.802197802198,2865.0,100.0,0.0,100.0,1.79096000626E12,-1.0,1.790960006339875E12,3671.875
189,1.0640674E7,1.0640674E7,324727.60009765625,1.0640674E7,0.9264354066985646,-1549.0,9.763157894736842,16324.0,0.0604066985645933,-101.0,0.037495700034399726,-12.0,-0.03543171654626763,24.0,-0.011351909184726524,3.0,0.31334332833583206,-209.0,0.7106446776611693,-474.0,2.767616191904048,-1846.0,4197.802197802198,2865.0,100.0,0.0,100.0,1.790960006385E12,-1.0,1.7909600063594062E12,3691.40625
190,1.0641314E7,1.0641314E7,324747.13134765625,1.0641314E7,0.9252392344497608,-1547.0,9.758971291866029,16317.0,0.06220095693779904,-104.0,-0.015307877536979706,-6.0,0.026831785345717236,31.0,0.014619883040935675,0.0,0.3088455772113943,-206.0,0.7136431784107946,-476.0,2.758620689655172,-1840.0,4199.267399267399,2866.0,100.0,0.0,100.0,1.790960006385E12,-1.0,1.7909600063789375E12,3710.9375
191,1.0641954E7,1.0641954E7,324766.66259765625,1.0641954E7,0.923444976076555,-1544.0,9.758971291866029,16317.0,0.05502392344497607,-92.0,-0.015307877536979706,-6.0,0.01754385964912281,30.0,0.005847953216374269,1.0,0.3088455772113943,-206.0,0.7151424287856072,-477.0,2.755622188905547,-1838.0,4197.802197802198,2865.0,100.0,0.0,100.0,1.790960006385E12,-1.0,1.7909600063984688E12,3730.46875
192,1.0642594E7,1.0642594E7,324786.19384765625,1.0642594E7,0.9258373205741627,-1548.0,9.75598086124402,16312.0,0.05502392344497607,-92.0,0.002579979360165118,-8.0,0.01685586515307878,30.0,-0.020123839009287926,4.0,0.3118440779610195,-208.0,0.7151424287856072,-477.0,2.758620689655172,-1840.0,4199.267399267399,2866.0,100.0,0.0,100.0,1.790960006385E12,-1.0,1.790960006418E12,3750.0
193,1.0643234E7,1.0643234E7,324805.72509765625,1.0643234E7,0.9264354066985646,-1549.0,9.758971291866029,16317.0,0.06220095693779904,-104.0,-0.015135878912968699,-6.0,-0.009459924320605434,27.0,-0.028035775713794297,5.0,0.3148425787106447,-210.0,0.712143928035982,-475.0,2.758620689655172,-1840.0,4199.267399267399,2866.0,100.0,0.0,100.0,1.790960006385E12,-1.0,1.7909600064375312E12,3769.53125
194,1.0643874E7,1.0643874E7,324825.25634765625,1.0643874E7,0.923444976076555,-1544.0,9.760765550239235,16320.0,0.0604066985645933,-101.0,0.011007911936704508,-9.0,-8.599931200550366E-4,28.0,0.016339869281045753,0.0,0.31334332833583206,-209.0,0.7211394302848575,-481.0,2.752623688155922,-1836.0,4199.267399267399,2866.0,100.0,0.0,100.0,1.790960006385E12,-1.0,1.7909600064570625E12,3789.0625
195,1.0644514E7,1.0644514E7,324844.78759765625,1.0644514E7,0.9282296650717703,-1552.0,9.758373205741627,16316.0,0.05980861244019139,-100.0,-0.006191950464396287,-7.0,-0.027003783969728242,25.0,0.007739938080495355,1.0,0.3103448275862069,-207.0,0.7241379310344828,-483.0,2.75712143928036,-1839.0,4199.267399267399,2866.0,100.0,0.0,100.0,1.790960006508E12,-1.0,1.7909600064765938E12,3808.59375
196,1.0645154E7,1.0645154E7,324864.31884765625,1.0645154E7,0.9306220095693779,-1556.0,9.767344497607656,16331.0,0.05502392344497607,-92.0,-0.014619883040935677,-6.0,0.00773993808049536,29.0,-0.0017199862401100791,2.0,0.3148425787106447,-210.0,0.7196401799100449,-480.0,2.7541229385307346,-1837.0,4199.267399267399,2866.0,100.0,0.0,100.0,1.790960006508E12,-1.0,1.790960006496125E12,3828.125
197,1.0645794E7,1.0645794E7,324883.85009765625,1.0645794E7,0.923444976076555,-1544.0,9.760765550239235,16320.0,0.06220095693779904,-104.0,0.021499828001375995,-10.0,-0.009975920192638457,27.0,-0.010663914688682491,3.0,0.3088455772113943,-206.0,0.712143928035982,-475.0,2.760119940029985,-1841.0,4200.7326007326,2867.0,100.0,0.0,100.0,1.790960006508E12,-1.0,1.7909600065156562E12,3847.65625
198,1.0646434E7,1.0646434E7,324903.38134765625,1.0646434E7,0.9258373205741627,-1548.0,9.761363636363637,16321.0,0.06220095693779904,-104.0,0.012383900928792574,-9.0,0.04265565875472997,33.0,-0.002063983488132098,2.0,0.3028485757121439,-202.0,0.7166416791604198,-478.0,2.758620689655172,-1840.0,4200.7326007326,2867.0,100.0,0.0,100.0,1.790960006508E12,-1.0,1.7909600065351875E12,3867.1875
199,1.0647074E7,1.0647074E7,324922.91259765625,1.0647074E7,0.9264354066985646,-1549.0,9.757775119617225,16315.0,0.06399521531100479,-107.0,0.011867905056759552,-9.0,-0.01943584451324389,26.0,-0.002063983488132098,2.0,0.31334332833583206,-209.0,0.7181409295352323,-479.0,2.764617691154423,-1844.0,4199.267399267399,2866.0,100.0,0.0,100.0,1.790960006508E12,-1.0,1.7909600065547188E12,3886.71875
200,1.0647714E7,1.0647714E7,324942.44384765625,1.0647714E7,0.9276315789473684,-1551.0,9.760167464114833,16319.0,0.05980861244019139,-100.0,0.029239766081871347,-11.0,-0.0013759889920880587,28.0,0.015307877536979705,0.0,0.3118440779610195,-208.0,0.7181409295352323,-479.0,2.7541229385307346,-1837.0,4200.7326007326,2867.0,100.0,0.0,100.0,1.790960006508E12,-1.0,1.79096000657425E12,3906.25
201,1.0648354E7,1.0648354E7,324961.97509765625,1.0648354E7,0.9276315789473684,-1551.0,9.751794258373206,16305.0,0.057416267942583726,-96.0,0.01995184038527692,-10.0,-0.018575851393188854,26.0,-0.011695906432748537,3.0,0.3148425787106447,-210.0,0.7256371814092953,-484.0,2.758620689655172,-1840.0,4202.197802197802,2868.0,100.0,0.0,100.0,1.790960006508E12,-1.0,1.7909600065937812E12,3925.78125
202,1.0648994E7,1.0648994E7,324981.50634765625,1.0648994E7,0.9258373205741627,-1548.0,9.757775119617225,16315.0,0.05921052631578947,-99.0,0.028035775713794297,-11.0,0.016683866529067774,30.0,0.0065359477124183,1.0,0.30134932533733133,-201.0,0.7136431784107946,-476.0,2.764617691154423,-1844.0,4200.7326007326,2867.0,100.0,0.0,100.0,1.790960006627E12,-1.0,1.7909600066133125E12,3945.3125
203,1.0649634E7,1.0649634E7,325001.03759765625,1.0649634E7,0.9258373205741627,-1548.0,9.760765550239235,16320.0,0.05801435406698564,-97.0,-0.025455796353629177,-5.0,0.007911936704506368,29.0,-0.010491916064671484,3.0,0.3073463268365817,-205.0,0.7166416791604198,-478.0,2.758620689655172,-1840.0,4199.267399267399,2866.0,100.0,0.0,100.0,1.790960006627E12,-1.0,1.7909600066328438E12,3964.84375
204,1.0650274E7,1.0650274E7,325020.56884765625,1.0650274E7,0.9210526315789473,-1540.0,9.758373205741627,16316.0,0.061602870813397125,-103.0,-0.008255933952528383,-7.0,0.007567939456484354,29.0,-0.0013759889920880624,2.0,0.3088455772113943,-206.0,0.7151424287856072,-477.0,2.758620689655172,-1840.0,4200.7326007326,2867.0,100.0,0.0,100.0,1.790960006627E12,-1.0,1.790960006652375E12,3984.375
205,1.0650914E7,1.0650914E7,325040.10009765625,1.0650914E7,0.9330143540669856,-1560.0,9.760765550239235,16320.0,0.05502392344497607,-92.0,0.001031991744066044,-8.0,-0.009803921568627449,27.0,0.016339869281045753,0.0,0.3088455772113943,-206.0,0.7181409295352323,-479.0,2.760119940029985,-1841.0,4199.267399267399,2866.0,100.0,0.0,100.0,1.790960006627E12,-1.0,1.7909600066719062E12,4003.90625
206,1.0651554E7,1.0651554E7,325059.63134765625,1.0651554E7,0.923444976076555,-1544.0,9.758373205741627,16316.0,0.05980861244019139,-100.0,-0.007395940832473339,-7.0,-0.009287925696594427,27.0,0.015823873409012732,0.0,0.3103448275862069,-207.0,0.7181409295352323,-479.0,2.758620689655172,-1840.0,4199.267399267399,2866.0,100.0,0.0,100.0,1.790960006627E12,-1.0,1.7909600066914375E12,4023.4375
207,1.0652194E7,1.0652194E7,325079.16259765625,1.0652194E7,0.9216507177033493,-1541.0,9.763157894736842,16324.0,0.057416267942583726,-96.0,-0.01582387340901273,-6.0,-0.01805985552115583,26.0,0.015651874785001723,0.0,0.3043478260869565,-203.0,0.7076461769115442,-472.0,2.75712143928036,-1839.0,4196.336996336996,2864.0,100.0,0.0,100.0,1.790960006627E12,-1.0,1.7909600067109688E12,4042.96875
208,1.0652834E7,1.0652834E7,325098.69384765625,1.0652834E7,0.9240430622009569,-1545.0,9.760167464114833,16319.0,0.05921052631578947,-99.0,0.001719986240110081,-8.0,-0.017887856897144824,26.0,-0.010491916064671482,3.0,0.3088455772113943,-206.0,0.7151424287856072,-477.0,2.76311844077961,-1843.0,4200.7326007326,2867.0,100.0,0.0,100.0,1.790960006746E12,-1.0,1.7909600067305E12,4062.5
209,1.0653474E7,1.0653474E7,325118.22509765625,1.0653474E7,0.9258373205741627,-1548.0,9.756578947368421,16313.0,0.0645933014354067,-108.0,0.01995184038527692,-10.0,-0.008771929824561405,27.0,-0.0017199862401100772,2.0,0.3193403298350824,-213.0,0.7211394302848575,-481.0,2.7616191904047973,-1842.0,4199.267399267399,2866.0,100.0,0.0,100.0,1.790960006746E12,-1.0,1.7909600067500312E12,4082.03125
210,1.0654114E7,1.0654114E7,325137.75634765625,1.0654114E7,0.9264354066985646,-1549.0,9.757775119617225,16315.0,0.057416267942583726,-96.0,0.002235982112143103,-8.0,0.008943928448572412,29.0,0.01651186790505676,0.0,0.3058470764617691,-204.0,0.7151424287856072,-477.0,2.758620689655172,-1840.0,4200.7326007326,2867.0,100.0,0.0,100.0,1.790960006746E12,-1.0,1.7909600067695625E12,4101.5625
211,1.0654754E7,1.0654754E7,325157.28759765625,1.0654754E7,0.9276315789473684,-1551.0,9.758971291866029,16317.0,0.06220095693779904,-104.0,-0.023907808737530106,-5.0,0.02648778809769522,31.0,0.01599587203302374,0.0,0.3088455772113943,-206.0,0.7166416791604198,-478.0,2.752623688155922,-1836.0,4199.267399267399,2866.0,100.0,0.0,100.0,1.790960006746E12,-1.0,1.7909600067890938E12,4121.09375
212,1.0655394E7,1.0655394E7,325176.81884765625,1.0655394E7,0.9282296650717703,-1552.0,9.758373205741627,16316.0,0.061602870813397125,-103.0,0.029411764705882353,-11.0,0.026143790849673207,31.0,0.006707946336429309,1.0,0.3028485757121439,-202.0,0.7226386806596702,-482.0,2.760119940029985,-1841.0,4199.267399267399,2866.0,100.0,0.0,100.0,1.790960006746E12,-1.0,1.790960006808625E12,4140.625
213,1.0656034E7,1.0656034E7,325196.35009765625,1.0656034E7,0.923444976076555,-1544.0,9.758373205741627,16316.0,0.05562200956937799,-93.0,0.01977984176126591,-10.0,0.0345717234262126,32.0,-0.02837977296181631,5.0,0.3103448275862069,-207.0,0.7136431784107946,-476.0,2.760119940029985,-1841.0,4200.7326007326,2867.0,100.0,0.0,100.0,1.790960006746E12,-1.0,1.7909600068281562E12,4160.15625
214,1.0656674E7,1.0656674E7,325215.88134765625,1.0656674E7,0.9264354066985646,-1549.0,9.760765550239235,16320.0,0.0645933014354067,-108.0,0.0020639834881320956,-8.0,0.007051943584451332,29.0,0.024939800481596153,-1.0,0.3088455772113943,-206.0,0.7226386806596702,-482.0,2.7541229385307346,-1837.0,4200.7326007326,2867.0,100.0,0.0,100.0,1.790960006861E12,-1.0,1.7909600068476875E12,4179.6875
215,1.0657314E7,1.0657314E7,325235.41259765625,1.0657314E7,0.9312200956937798,-1557.0,9.76255980861244,16323.0,0.05263157894736842,-88.0,0.002235982112143103,-8.0,-0.01943584451324389,26.0,0.006879944960440318,1.0,0.3088455772113943,-206.0,0.7181409295352323,-479.0,2.76311844077961,-1843.0,4199.267399267399,2866.0,100.0,0.0,100.0,1.790960006861E12,-1.0,1.7909600068672188E12,4199.21875
216,1.0657954E7,1.0657954E7,325254.94384765625,1.0657954E7,0.9252392344497608,-1547.0,9.761363636363637,16321.0,0.053229665071770335,-89.0,0.011695906432748544,-9.0,-0.01943584451324389,26.0,0.006879944960440318,1.0,0.31784107946026985,-212.0,0.7151424287856072,-477.0,2.75712143928036,-1839.0,4199.267399267399,2866.0,100.0,0.0,100.0,1.790960006861E12,-1.0,1.79096000688675E12,4218.75
217,1.0658594E7,1.0658594E7,325274.47509765625,1.0658594E7,0.9288277511961722,-1553.0,9.761363636363637,16321.0,0.050239234449760764,-84.0,0.00292397660818714,-8.0,-0.018403852769177845,26.0,0.015479876160990714,0.0,0.3118440779610195,-208.0,0.7226386806596702,-482.0,2.752623688155922,-1836.0,4200.7326007326,2867.0,100.0,0.0,100.0,1.790960006861E12,-1.0,1.7909600069062812E12,4238.28125
218,1.0659234E7,1.0659234E7,325294.00634765625,1.0659234E7,0.9258373205741627,-1548.0,9.760765550239235,16320.0,0.05263157894736842,-88.0,-0.005847953216374264,-7.0,-0.017715858273133815,26.0,0.006363949088407293,1.0,0.31634182908545727,-211.0,0.7226386806596702,-482.0,2.76311844077961,-1843.0,4200.7326007326,2867.0,100.0,0.0,100.0,1.790960006861E12,-1.0,1.7909600069258125E12,4257.8125
219,1.0659874E7,1.0659874E7,325313.53759765625,1.0659874E7,0.9264354066985646,-1549.0,9.75598086124402,16312.0,0.057416267942583726,-96.0,0.011867905056759552,-9.0,0.02648778809769522,31.0,-0.01100791193670451,3.0,0.3103448275862069,-207.0,0.712143928035982,-475.0,2.755622188905547,-1838.0,4200.7326007326,2867.0,100.0,0.0,100.0,1.790960006861E12,-1.0,1.7909600069453438E12,4277.34375
220,1.0660514E7,1.0660514E7,325333.06884765625,1.0660514E7,0.9258373205741627,-1548.0,9.760765550239235,16320.0,0.06638755980861244,-111.0,0.01995184038527692,-10.0,-3.439972480220147E-4,28.0,0.033367733058135535,-2.0,0.3043478260869565,-203.0,0.7106446776611693,-474.0,2.760119940029985,-1841.0,4200.7326007326,2867.0,100.0,0.0,100.0,1.790960006985E12,-1.0,1.790960006964875E12,4296.875
221,1.0661154E7,1.0661154E7,325352.60009765625,1.0661154E7,0.923444976076555,-1544.0,9.756578947368421,16313.0,0.05562200956937799,-93.0,-0.015995872033023734,-6.0,0.017371861025111804,30.0,-0.011007911936704511,3.0,0.3043478260869565,-203.0,0.7181409295352323,-479.0,2.7466266866566715,-1832.0,4200.7326007326,2867.0,100.0,0.0,100.0,1.790960006985E12,-1.0,1.7909600069844062E12,4316.40625
222,1.0661794E7,1.0661794E7,325372.13134765625,1.0661794E7,0.9258373205741627,-1548.0,9.763157894736842,16324.0,0.05980861244019139,-100.0,0.018919848641210876,-10.0,-0.009459924320605434,27.0,-0.011179910560715517,3.0,0.3073463268365817,-205.0,0.7166416791604198,-478.0,2.75712143928036,-1839.0,4200.7326007326,2867.0,100.0,0.0,100.0,1.790960006985E12,-1.0,1.7909600070039375E12,4335.9375
223,1.0662434E7,1.0662434E7,325391.66259765625,1.0662434E7,0.9288277511961722,-1553.0,9.753588516746412,16308.0,0.05921052631578947,-99.0,0.01805985552115583,-10.0,-0.00911592707258342,27.0,-0.011179910560715517,3.0,0.31334332833583206,-209.0,0.7211394302848575,-481.0,2.755622188905547,-1838.0,4200.7326007326,2867.0,100.0,0.0,100.0,1.790960006985E12,-1.0,1.7909600070234688E12,4355.46875
224,1.0663074E7,1.0663074E7,325411.19384765625,1.0663074E7,0.9282296650717703,-1552.0,9.760765550239235,16320.0,0.05801435406698564,-97.0,0.01754385964912281,-10.0,0.01805985552115583,30.0,-0.04643962848297214,7.0,0.3058470764617691,-204.0,0.7166416791604198,-478.0,2.7511244377811095,-1835.0,4197.802197802198,2865.0,100.0,0.0,100.0,1.790960006985E12,-1.0,1.790960007043E12,4375.0
225,1.0663714E7,1.0663714E7,325430.72509765625,1.0663714E7,0.9330143540669856,-1560.0,9.758373205741627,16316.0,0.05980861244019139,-100.0,-6.879944960440294E-4,-8.0,-0.00842793257653939,27.0,-0.0012039903680770572,2.0,0.3118440779610195,-208.0,0.7136431784107946,-476.0,2.764617691154423,-1844.0,4197.802197802198,2865.0,100.0,0.0,100.0,1.790960006985E12,-1.0,1.7909600070625312E12,4394.53125
226,1.0664354E7,1.0664354E7,325450.25634765625,1.0664354E7,0.9210526315789473,-1540.0,9.757775119617225,16315.0,0.06399521531100479,-107.0,-0.00911592707258342,-7.0,-0.01754385964912281,26.0,-0.009631922944616447,3.0,0.3088455772113943,-206.0,0.7181409295352323,-479.0,2.764617691154423,-1844.0,4199.267399267399,2866.0,100.0,0.0,100.0,1.790960007108E12,-1.0,1.7909600070820625E12,4414.0625
227,1.0664994E7,1.0664994E7,325469.78759765625,1.0664994E7,0.9264354066985646,-1549.0,9.763157894736842,16324.0,0.06220095693779904,-104.0,-0.008599931200550397,-7.0,-1.7199862401100734E-4,28.0,-0.018231854145166843,4.0,0.31334332833583206,-209.0,0.7196401799100449,-480.0,2.758620689655172,-1840.0,4200.7326007326,2867.0,100.0,0.0,100.0,1.790960007108E12,-1.0,1.7909600071015938E12,4433.59375
228,1.0665634E7,1.0665634E7,325489.31884765625,1.0665634E7,0.9264354066985646,-1549.0,9.761363636363637,16321.0,0.06220095693779904,-104.0,-0.04351565187478501,-3.0,0.0259717922256622,31.0,-5.159958720330259E-4,2.0,0.3118440779610195,-208.0,0.7166416791604198,-478.0,2.75712143928036,-1839.0,4199.267399267399,2866.0,100.0,0.0,100.0,1.790960007108E12,-1.0,1.790960007121125E12,4453.125
229,1.0666274E7,1.0666274E7,325508.85009765625,1.0666274E7,0.9288277511961722,-1553.0,9.757775119617225,16315.0,0.053229665071770335,-89.0,0.0012039903680770591,-8.0,-0.05366357069143447,22.0,0.017371861025111804,0.0,0.3043478260869565,-203.0,0.7166416791604198,-478.0,2.764617691154423,-1844.0,4197.802197802198,2865.0,100.0,0.0,100.0,1.790960007108E12,-1.0,1.7909600071406562E12,4472.65625
230,1.0666914E7,1.0666914E7,325528.38134765625,1.0666914E7,0.9282296650717703,-1552.0,9.763157894736842,16324.0,0.06399521531100479,-107.0,-0.007567939456484346,-7.0,-0.03491572067423461,24.0,-3.439972480220185E-4,2.0,0.3103448275862069,-207.0,0.7151424287856072,-477.0,2.7691154422788604,-1847.0,4199.267399267399,2866.0,100.0,0.0,100.0,1.790960007108E12,-1.0,1.7909600071601875E12,4492.1875
231,1.0667554E7,1.0667554E7,325547.91259765625,1.0667554E7,0.9276315789473684,-1551.0,9.756578947368421,16313.0,0.05502392344497607,-92.0,-0.007567939456484346,-7.0,0.017887856897144824,30.0,-0.0010319917440660498,2.0,0.31334332833583206,-209.0,0.7226386806596702,-482.0,2.752623688155922,-1836.0,4197.802197802198,2865.0,100.0,0.0,100.0,1.790960007108E12,-1.0,1.7909600071797188E12,4511.71875
232,1.0668194E7,1.0668194E7,325567.44384765625,1.0668194E7,0.9258373205741627,-1548.0,9.753588516746412,16308.0,0.05502392344497607,-92.0,-0.02528379772961817,-5.0,-0.00842793257653939,27.0,0.007739938080495355,1.0,0.3088455772113943,-206.0,0.7151424287856072,-477.0,2.760119940029985,-1841.0,4197.802197802198,2865.0,100.0,0.0,100.0,1.79096000722E12,-1.0,1.79096000719925E12,4531.25
233,1.0668834E7,1.0668834E7,325586.97509765625,1.0668834E7,0.9282296650717703,-1552.0,9.757775119617225,16315.0,0.05203349282296651,-87.0,-0.007911936704506368,-7.0,0.00911592707258342,29.0,-0.0013759889920880624,2.0,0.3148425787106447,-210.0,0.7091454272863568,-473.0,2.764617691154423,-1844.0,4197.802197802198,2865.0,100.0,0.0,100.0,1.79096000722E12,-1.0,1.7909600072187812E12,4550.78125
234,1.0669474E7,1.0669474E7,325606.50634765625,1.0669474E7,0.9258373205741627,-1548.0,9.758373205741627,16316.0,0.05562200956937799,-93.0,-0.01633986928104575,-6.0,0.008943928448572412,29.0,-0.009803921568627454,3.0,0.3043478260869565,-203.0,0.7166416791604198,-478.0,2.7616191904047973,-1842.0,4197.802197802198,2865.0,100.0,0.0,100.0,1.79096000722E12,-1.0,1.7909600072383125E12,4570.3125
235,1.0670114E7,1.0670114E7,325626.03759765625,1.0670114E7,0.923444976076555,-1544.0,9.760765550239235,16320.0,0.057416267942583726,-96.0,0.019091847265221885,-10.0,-0.061403508771929835,21.0,-6.879944960440331E-4,2.0,0.3088455772113943,-206.0,0.7166416791604198,-478.0,2.758620689655172,-1840.0,4200.7326007326,2867.0,100.0,0.0,100.0,1.79096000722E12,-1.0,1.7909600072578438E12,4589.84375
236,1.0670754E7,1.0670754E7,325645.56884765625,1.0670754E7,0.9288277511961722,-1553.0,9.75598086124402,16312.0,0.05502392344497607,-92.0,0.018919848641210876,-10.0,0.009975920192638457,29.0,-0.02700378396972825,5.0,0.3028485757121439,-202.0,0.7241379310344828,-483.0,2.767616191904048,-1846.0,4202.197802197802,2868.0,100.0,0.0,100.0,1.79096000722E12,-1.0,1.790960007277375E12,4609.375
237,1.0671394E7,1.0671394E7,325665.10009765625,1.0671394E7,0.9306220095693779,-1556.0,9.760167464114833,16319.0,0.057416267942583726,-96.0,0.026831785345717236,-11.0,0.02717578259373925,31.0,-0.008943928448572412,3.0,0.3148425787106447,-210.0,0.7166416791604198,-478.0,2.76311844077961,-1843.0,4199.267399267399,2866.0,100.0,0.0,100.0,1.79096000722E12,-1.0,1.7909600072969062E12,4628.90625
238,1.0672034E7,1.0672034E7,325684.63134765625,1.0672034E7,0.9186602870813396,-1536.0,9.760167464114833,16319.0,0.05921052631578947,-99.0,-0.026143790849673207,-5.0,0.008943928448572412,29.0,0.008599931200550397,1.0,0.3088455772113943,-206.0,0.7076461769115442,-472.0,2.758620689655172,-1840.0,4200.7326007326,2867.0,100.0,0.0,100.0,1.790960007347E12,-1.0,1.7909600073164375E12,4648.4375
239,1.0672674E7,1.0672674E7,325704.16259765625,1.0672674E7,0.9276315789473684,-1551.0,9.758373205741627,16316.0,0.05562200956937799,-93.0,-0.026143790849673207,-5.0,-0.008771929824561405,27.0,0.008083935328517372,1.0,0.3058470764617691,-204.0,0.7166416791604198,-478.0,2.755622188905547,-1838.0,4200.7326007326,2867.0,100.0,0.0,100.0,1.790960007347E12,-1.0,1.7909600073359688E12,4667.96875
240,1.0673314E7,1.0673314E7,325723.69384765625,1.0673314E7,0.9216507177033493,-1541.0,9.763755980861244,16325.0,0.061602870813397125,-103.0,-0.00842793257653939,-7.0,-0.01685586515307878,26.0,0.016339869281045753,0.0,0.3058470764617691,-204.0,0.7166416791604198,-478.0,2.7616191904047973,-1842.0,4200.7326007326,2867.0,100.0,0.0,100.0,1.790960007347E12,-1.0,1.7909600073555E12,4687.5
241,1.0673954E7,1.0673954E7,325743.22509765625,1.0673954E7,0.9258373205741627,-1548.0,9.76555023923445,16328.0,0.057416267942583726,-96.0,-0.007567939456484346,-7.0,0.026659786721706227,31.0,-0.010491916064671484,3.0,0.3058470764617691,-204.0,0.7166416791604198,-478.0,2.760119940029985,-1841.0,4202.197802197802,2868.0,100.0,0.0,100.0,1.790960007347E12,-1.0,1.7909600073750312E12,4707.03125
242,1.0674594E7,1.0674594E7,325762.75634765625,1.0674594E7,0.9252392344497608,-1547.0,9.76555023923445,16328.0,0.06220095693779904,-104.0,0.009803921568627449,-9.0,-0.00842793257653939,27.0,-0.02751977984176127,5.0,0.3088455772113943,-206.0,0.7166416791604198,-478.0,2.764617691154423,-1844.0,4200.7326007326,2867.0,100.0,0.0,100.0,1.790960007347E12,-1.0,1.7909600073945625E12,4726.5625
243,1.0675234E7,1.0675234E7,325782.28759765625,1.0675234E7,0.9282296650717703,-1552.0,9.760765550239235,16320.0,0.05980861244019139,-100.0,0.01805985552115583,-10.0,0.009631922944616442,29.0,-0.00928792569659443,3.0,0.3148425787106447,-210.0,0.7166416791604198,-478.0,2.7616191904047973,-1842.0,4202.197802197802,2868.0,100.0,0.0,100.0,1.790960007347E12,-1.0,1.7909600074140938E12,4746.09375
244,1.0675874E7,1.0675874E7,325801.81884765625,1.0675874E7,0.9282296650717703,-1552.0,9.758373205741627,16316.0,0.06279904306220095,-105.0,0.06157550739594084,-15.0,0.018575851393188854,30.0,-0.03577571379428965,6.0,0.3058470764617691,-204.0,0.7181409295352323,-479.0,2.764617691154423,-1844.0,4199.267399267399,2866.0,100.0,0.0,100.0,1.790960007347E12,-1.0,1.790960007433625E12,4765.625
245,1.0676514E7,1.0676514E7,325821.35009765625,1.0676514E7,0.923444976076555,-1544.0,9.758971291866029,16317.0,0.05502392344497607,-92.0,0.01616787065703475,-10.0,0.01805985552115583,30.0,0.008255933952528379,1.0,0.3043478260869565,-203.0,0.7271364317841079,-485.0,2.75712143928036,-1839.0,4199.267399267399,2866.0,100.0,0.0,100.0,1.79096000746E12,-1.0,1.7909600074531562E12,4785.15625
246,1.0677154E7,1.0677154E7,325840.88134765625,1.0677154E7,0.9264354066985646,-1549.0,9.760167464114833,16319.0,0.057416267942583726,-96.0,0.03353973168214655,-12.0,0.017715858273133815,30.0,-3.439972480220166E-4,2.0,0.31634182908545727,-211.0,0.7241379310344828,-483.0,2.7661169415292353,-1845.0,4200.7326007326,2867.0,100.0,0.0,100.0,1.79096000746E12,-1.0,1.7909600074726875E12,4804.6875
247,1.0677794E7,1.0677794E7,325860.41259765625,1.0677794E7,0.9258373205741627,-1548.0,9.75598086124402,16312.0,0.05801435406698564,-97.0,-0.03749570003439974,-4.0,-6.879944960440294E-4,28.0,-0.02648778809769522,5.0,0.3043478260869565,-203.0,0.7166416791604198,-478.0,2.755622188905547,-1838.0,4194.871794871795,2863.0,100.0,0.0,100.0,1.79096000746E12,-1.0,1.7909600074922188E12,4824.21875
248,1.0678434E7,1.0678434E7,325879.94384765625,1.0678434E7,0.9300239234449761,-1555.0,9.758971291866029,16317.0,0.06220095693779904,-104.0,-0.010835913312693493,-7.0,-5.15995872033022E-4,28.0,-0.0259717922256622,5.0,0.3103448275862069,-207.0,0.712143928035982,-475.0,2.75712143928036,-1839.0,4197.802197802198,2865.0,100.0,0.0,100.0,1.79096000746E12,-1.0,1.79096000751175E12,4843.75
249,1.0679074E7,1.0679074E7,325899.47509765625,1.0679074E7,0.9330143540669856,-1560.0,9.758971291866029,16317.0,0.0651913875598086,-109.0,-0.02786377708978328,-5.0,0.008083935328517375,29.0,-0.008083935328517372,3.0,0.31334332833583206,-209.0,0.7196401799100449,-480.0,2.7616191904047973,-1842.0,4200.7326007326,2867.0,100.0,0.0,100.0,1.79096000746E12,-1.0,1.7909600075312812E12,4863.28125
250,1.0679714E7,1.0679714E7,325919.00634765625,1.0679714E7,0.9258373205741627,-1548.0,9.75598086124402,16312.0,0.06279904306220095,-105.0,-0.018403852769177845,-6.0,-0.026315789473684216,25.0,-0.02545579635362917,5.0,0.3088455772113943,-206.0,0.7151424287856072,-477.0,2.76311844077961,-1843.0,4197.802197802198,2865.0,100.0,0.0,100.0,1.79096000746E12,-1.0,1.7909600075508125E12,4882.8125
251,1.0680354E7,1.0680354E7,325938.53759765625,1.0680354E7,0.9276315789473684,-1551.0,9.758373205741627,16316.0,0.06220095693779904,-104.0,-3.439972480220147E-4,-8.0,0.008943928448572412,29.0,0.01014791881664947,1.0,0.3028485757121439,-202.0,0.7136431784107946,-476.0,2.760119940029985,-1841.0,4199.267399267399,2866.0,100.0,0.0,100.0,1.790960007587E12,-1.0,1.7909600075703438E12,4902.34375
252,1.0680994E7,1.0680994E7,325958.06884765625,1.0680994E7,0.9258373205741627,-1548.0,9.751794258373206,16305.0,0.06220095693779904,-104.0,-0.026143790849673207,-5.0,-0.008771929824561405,27.0,0.010319917440660478,1.0,0.3073463268365817,-205.0,0.7211394302848575,-481.0,2.7616191904047973,-1842.0,4199.267399267399,2866.0,100.0,0.0,100.0,1.790960007587E12,-1.0,1.790960007589875E12,4921.875
253,1.0681634E7,1.0681634E7,325977.60009765625,1.0681634E7,0.9306220095693779,-1556.0,9.764952153110048,16327.0,0.05502392344497607,-92.0,0.009803921568627449,-9.0,0.017371861025111804,30.0,0.009975920192638463,1.0,0.3028485757121439,-202.0,0.7286356821589205,-486.0,2.75712143928036,-1839.0,4199.267399267399,2866.0,100.0,0.0,100.0,1.790960007587E12,-1.0,1.7909600076094062E12,4941.40625
254,1.0682274E7,1.0682274E7,325997.13134765625,1.0682274E7,0.9240430622009569,-1545.0,9.761363636363637,16321.0,0.05980861244019139,-100.0,0.027691778465772282,-11.0,0.017371861025111804,30.0,0.0012039903680770591,2.0,0.3088455772113943,-206.0,0.7211394302848575,-481.0,2.755622188905547,-1838.0,4199.267399267399,2866.0,100.0,0.0,100.0,1.790960007587E12,-1.0,1.7909600076289375E12,4960.9375
255,1.0682914E7,1.0682914E7,326016.66259765625,1.0682914E7,0.9258373205741627,-1548.0,9.761363636363637,16321.0,0.061602870813397125,-103.0,-0.00842793257653939,-7.0,0.017199862401100795,30.0,-0.007739938080495353,3.0,0.3043478260869565,-203.0,0.712143928035982,-475.0,2.76311844077961,-1843.0,4200.7326007326,2867.0,100.0,0.0,100.0,1.790960007587E12,-1.0,1.7909600076484688E12,4980.46875
256,1.0683554E7,1.0683554E7,326036.19384765625,1.0683554E7,0.9252392344497608,-1547.0,9.756578947368421,16313.0,0.06279904306220095,-105.0,3.439972480220147E-4,-8.0,0.01702786377708979,30.0,0.009975920192638463,1.0,0.31334332833583206,-209.0,0.7106446776611693,-474.0,2.7616191904047973,-1842.0,4200.7326007326,2867.0,100.0,0.0,100.0,1.790960007587E12,-1.0,1.790960007668E12,5000.0
257,1.0684194E7,1.0684194E7,326055.72509765625,1.0684194E7,0.9264354066985646,-1549.0,9.760765550239235,16320.0,0.06758373205741626,-113.0,3.439972480220147E-4,-8.0,0.03405572755417958,32.0,-0.007395940832473339,3.0,0.3043478260869565,-203.0,0.712143928035982,-475.0,2.758620689655172,-1840.0,4199.267399267399,2866.0,100.0,0.0,100.0,1.790960007702E12,-1.0,1.7909600076875312E12,5019.53125
258,1.0684834E7,1.0684834E7,326075.25634765625,1.0684834E7,0.9288277511961722,-1553.0,9.758373205741627,16316.0,0.057416267942583726,-96.0,-0.03491572067423461,-4.0,-0.01943584451324389,26.0,-0.024423804609563123,5.0,0.3058470764617691,-204.0,0.7136431784107946,-476.0,2.758620689655172,-1840.0,4199.267399267399,2866.0,100.0,0.0,100.0,1.790960007702E12,-1.0,1.7909600077070625E12,5039.0625
259,1.0685474E7,1.0685474E7,326094.78759765625,1.0685474E7,0.923444976076555,-1544.0,9.758971291866029,16317.0,0.057416267942583726,-96.0,-0.01702786377708979,-6.0,-0.010663914688682486,27.0,0.0027519779841761248,2.0,0.3043478260869565,-203.0,0.7151424287856072,-477.0,2.764617691154423,-1844.0,4200.7326007326,2867.0,100.0,0.0,100.0,1.790960007702E12,-1.0,1.7909600077265938E12,5058.59375
260,1.0686114E7,1.0686114E7,326114.31884765625,1.0686114E7,0.9252392344497608,-1547.0,9.763157894736842,16324.0,0.057416267942583726,-96.0,0.009631922944616442,-9.0,-0.019607843137254898,26.0,-0.023735810113519093,5.0,0.3088455772113943,-206.0,0.7136431784107946,-476.0,2.758620689655172,-1840.0,4200.7326007326,2867.0,100.0,0.0,100.0,1.790960007702E12,-1.0,1.790960007746125E12,5078.125
261,1.0686754E7,1.0686754E7,326133.85009765625,1.0686754E7,0.9252392344497608,-1547.0,9.760765550239235,16320.0,0.057416267942583726,-96.0,-0.00773993808049536,-7.0,0.006879944960440324,29.0,0.011867905056759545,1.0,0.3148425787106447,-210.0,0.7136431784107946,-476.0,2.7661169415292353,-1845.0,4202.197802197802,2868.0,100.0,0.0,100.0,1.790960007702E12,-1.0,1.7909600077656562E12,5097.65625
262,1.0687394E7,1.0687394E7,326153.38134765625,1.0687394E7,0.9252392344497608,-1547.0,9.761363636363637,16321.0,0.061602870813397125,-103.0,-0.042655658754729965,-3.0,0.024423804609563133,31.0,0.020811833505331955,0.0,0.3043478260869565,-203.0,0.7106446776611693,-474.0,2.7541229385307346,-1837.0,4197.802197802198,2865.0,100.0,0.0,100.0,1.790960007702E12,-1.0,1.7909600077851875E12,5117.1875
263,1.0688034E7,1.0688034E7,326172.91259765625,1.0688034E7,0.9240430622009569,-1545.0,9.760765550239235,16320.0,0.0604066985645933,-101.0,0.019091847265221885,-10.0,0.01565187478500173,30.0,0.020811833505331962,0.0,0.3058470764617691,-204.0,0.7151424287856072,-477.0,2.75712143928036,-1839.0,4200.7326007326,2867.0,100.0,0.0,100.0,1.790960007822E12,-1.0,1.7909600078047188E12,5136.71875
264,1.0688674E7,1.0688674E7,326192.44384765625,1.0688674E7,0.9276315789473684,-1551.0,9.758373205741627,16316.0,0.05921052631578947,-99.0,-0.01582387340901273,-6.0,-0.010491916064671479,27.0,0.0030959752321981396,2.0,0.3103448275862069,-207.0,0.7136431784107946,-476.0,2.752623688155922,-1836.0,4202.197802197802,2868.0,100.0,0.0,100.0,1.790960007822E12,-1.0,1.79096000782425E12,5156.25
265,1.0689314E7,1.0689314E7,326211.97509765625,1.0689314E7,0.9264354066985646,-1549.0,9.756578947368421,16313.0,0.05921052631578947,-99.0,-0.006363949088407294,-7.0,-8.599931200550366E-4,28.0,0.0025799793601651217,2.0,0.3148425787106447,-210.0,0.7181409295352323,-479.0,2.7616191904047973,-1842.0,4197.802197802198,2865.0,100.0,0.0,100.0,1.790960007822E12,-1.0,1.7909600078437812E12,5175.78125
266,1.0689954E7,1.0689954E7,326231.50634765625,1.0689954E7,0.922846889952153,-1543.0,9.758373205741627,16316.0,0.05980861244019139,-100.0,-0.023735810113519096,-5.0,0.03439972480220159,32.0,-0.01444788441692467,4.0,0.3073463268365817,-205.0,0.7106446776611693,-474.0,2.7661169415292353,-1845.0,4199.267399267399,2866.0,100.0,0.0,100.0,1.790960007822E12,-1.0,1.7909600078633125E12,5195.3125
267,1.0690594E7,1.0690594E7,326251.03759765625,1.0690594E7,0.9240430622009569,-1545.0,9.754186602870814,16309.0,0.05502392344497607,-92.0,-0.023219814241486066,-5.0,0.024595803233574142,31.0,-0.005159958720330239,3.0,0.29985007496251875,-200.0,0.7181409295352323,-479.0,2.76311844077961,-1843.0,4200.7326007326,2867.0,100.0,0.0,100.0,1.790960007822E12,-1.0,1.7909600078828438E12,5214.84375
268,1.0691234E7,1.0691234E7,326270.56884765625,1.0691234E7,0.9204545454545454,-1539.0,9.763157894736842,16324.0,0.0651913875598086,-109.0,0.030099759201926393,-11.0,0.006191950464396295,29.0,-0.013587891296869626,4.0,0.3073463268365817,-205.0,0.7151424287856072,-477.0,2.7616191904047973,-1842.0,4200.7326007326,2867.0,100.0,0.0,100.0,1.790960007822E12,-1.0,1.790960007902375E12,5234.375
269,1.0691874E7,1.0691874E7,326290.10009765625,1.0691874E7,0.9252392344497608,-1547.0,9.758373205741627,16316.0,0.05921052631578947,-99.0,0.020811833505331966,-10.0,-0.0030959752321981318,28.0,0.0046439628482972135,2.0,0.29985007496251875,-200.0,0.7151424287856072,-477.0,2.752623688155922,-1836.0,4197.802197802198,2865.0,100.0,0.0,100.0,1.790960007943E12,-1.0,1.7909600079219062E12,5253.90625
270,1.0692514E7,1.0692514E7,326309.63134765625,1.0692514E7,0.9282296650717703,-1552.0,9.758971291866029,16317.0,0.05562200956937799,-93.0,0.029067767457860338,-11.0,-0.02975576195390436,25.0,0.013587891296869626,1.0,0.3028485757121439,-202.0,0.7106446776611693,-474.0,2.7541229385307346,-1837.0,4200.7326007326,2867.0,100.0,0.0,100.0,1.790960007943E12,-1.0,1.7909600079414375E12,5273.4375
271,1.0693154E7,1.0693154E7,326329.16259765625,1.0693154E7,0.9264354066985646,-1549.0,9.760167464114833,16319.0,0.05980861244019139,-100.0,-0.015135878912968699,-6.0,-0.011179910560715507,27.0,0.004471964224286206,2.0,0.3073463268365817,-205.0,0.7136431784107946,-476.0,2.760119940029985,-1841.0,4197.802197802198,2865.0,100.0,0.0,100.0,1.790960007943E12,-1.0,1.7909600079609688E12,5292.96875
272,1.0693794E7,1.0693794E7,326348.69384765625,1.0693794E7,0.9288277511961722,-1553.0,9.75598086124402,16312.0,0.05502392344497607,-92.0,0.02063983488132095,-10.0,-0.0022359821121430952,28.0,0.02270381836945305,0.0,0.3118440779610195,-208.0,0.7181409295352323,-479.0,2.760119940029985,-1841.0,4199.267399267399,2866.0,100.0,0.0,100.0,1.790960007943E12,-1.0,1.7909600079805E12,5312.5
273,1.0694434E7,1.0694434E7,326368.22509765625,1.0694434E7,0.9240430622009569,-1545.0,9.755382775119617,16311.0,0.06399521531100479,-107.0,0.011179910560715515,-9.0,-0.010663914688682486,27.0,0.0046439628482972135,2.0,0.3148425787106447,-210.0,0.7211394302848575,-481.0,2.760119940029985,-1841.0,4199.267399267399,2866.0,100.0,0.0,100.0,1.790960007943E12,-1.0,1.7909600080000312E12,5332.03125
274,1.0695074E7,1.0695074E7,326387.75634765625,1.0695074E7,0.9252392344497608,-1547.0,9.75598086124402,16312.0,0.057416267942583726,-96.0,0.002579979360165118,-8.0,-0.0018919848641210807,28.0,-0.004299965600275199,3.0,0.3073463268365817,-205.0,0.7181409295352323,-479.0,2.755622188905547,-1838.0,4200.7326007326,2867.0,100.0,0.0,100.0,1.790960007943E12,-1.0,1.7909600080195625E12,5351.5625
275,1.0695714E7,1.0695714E7,326407.28759765625,1.0695714E7,0.9282296650717703,-1552.0,9.758373205741627,16316.0,0.05562200956937799,-93.0,0.029239766081871347,-11.0,-0.002063983488132088,28.0,0.004471964224286206,2.0,0.3073463268365817,-205.0,0.7136431784107946,-476.0,2.7541229385307346,-1837.0,4199.267399267399,2866.0,100.0,0.0,100.0,1.790960008066E12,-1.0,1.7909600080390938E12,5371.09375
276,1.0696354E7,1.0696354E7,326426.81884765625,1.0696354E7,0.9240430622009569,-1545.0,9.760167464114833,16319.0,0.05801435406698564,-97.0,0.0027519779841761248,-8.0,-0.019263845889232883,26.0,-0.013931888544891644,4.0,0.3058470764617691,-204.0,0.7091454272863568,-473.0,2.7541229385307346,-1837.0,4199.267399267399,2866.0,100.0,0.0,100.0,1.790960008066E12,-1.0,1.790960008058625E12,5390.625
277,1.0696994E7,1.0696994E7,326446.35009765625,1.0696994E7,0.9258373205741627,-1548.0,9.760167464114833,16319.0,0.06220095693779904,-104.0,0.020295837633298935,-10.0,-0.010319917440660471,27.0,0.030271757825937398,-1.0,0.3028485757121439,-202.0,0.7211394302848575,-481.0,2.76311844077961,-1843.0,4200.7326007326,2867.0,100.0,0.0,100.0,1.790960008066E12,-1.0,1.7909600080781562E12,5410.15625
278,1.0697634E7,1.0697634E7,326465.88134765625,1.0697634E7,0.9258373205741627,-1548.0,9.755382775119617,16311.0,0.0604066985645933,-101.0,-0.015307877536979706,-6.0,-0.019263845889232883,26.0,-0.005503955968352254,3.0,0.3103448275862069,-207.0,0.7166416791604198,-478.0,2.76311844077961,-1843.0,4202.197802197802,2868.0,100.0,0.0,100.0,1.790960008066E12,-1.0,1.7909600080976875E12,5429.6875
279,1.0698274E7,1.0698274E7,326485.41259765625,1.0698274E7,0.9300239234449761,-1555.0,9.763157894736842,16324.0,0.05502392344497607,-92.0,0.028723770209838323,-11.0,0.0073959408324733465,29.0,-0.005675954592363261,3.0,0.3088455772113943,-206.0,0.7226386806596702,-482.0,2.760119940029985,-1841.0,4200.7326007326,2867.0,100.0,0.0,100.0,1.790960008066E12,-1.0,1.7909600081172188E12,5449.21875
280,1.0698914E7,1.0698914E7,326504.94384765625,1.0698914E7,0.9276315789473684,-1551.0,9.75598086124402,16312.0,0.05562200956937799,-93.0,-0.051599587203302384,-2.0,0.016511867905056765,30.0,0.003267973856209151,2.0,0.3118440779610195,-208.0,0.7151424287856072,-477.0,2.7616191904047973,-1842.0,4200.7326007326,2867.0,100.0,0.0,100.0,1.790960008066E12,-1.0,1.79096000813675E12,5468.75
281,1.0699554E7,1.0699554E7,326524.47509765625,1.0699554E7,0.9282296650717703,-1552.0,9.754186602870814,16309.0,0.05801435406698564,-97.0,-0.006707946336429309,-7.0,0.023907808737530113,31.0,0.021155830753353973,0.0,0.3118440779610195,-208.0,0.7196401799100449,-480.0,2.752623688155922,-1836.0,4200.7326007326,2867.0,100.0,0.0,100.0,1.790960008185E12,-1.0,1.7909600081562812E12,5488.28125
282,1.0700194E7,1.0700194E7,326544.00634765625,1.0700194E7,0.9240430622009569,-1545.0,9.758971291866029,16317.0,0.05980861244019139,-100.0,0.0108359133126935,-9.0,-0.012383900928792558,27.0,0.003267973856209151,2.0,0.3043478260869565,-203.0,0.7136431784107946,-476.0,2.76311844077961,-1843.0,4200.7326007326,2867.0,100.0,0.0,100.0,1.790960008185E12,-1.0,1.7909600081758125E12,5507.8125
283,1.0700834E7,1.0700834E7,326563.53759765625,1.0700834E7,0.9264354066985646,-1549.0,9.758971291866029,16317.0,0.05502392344497607,-92.0,0.001719986240110081,-8.0,-0.011867905056759536,27.0,-0.005503955968352257,3.0,0.3073463268365817,-205.0,0.7181409295352323,-479.0,2.758620689655172,-1840.0,4200.7326007326,2867.0,100.0,0.0,100.0,1.790960008185E12,-1.0,1.7909600081953438E12,5527.34375
284,1.0701474E7,1.0701474E7,326583.06884765625,1.0701474E7,0.9282296650717703,-1552.0,9.760765550239235,16320.0,0.05562200956937799,-93.0,0.027519779841761273,-11.0,-0.029411764705882346,25.0,0.01238390092879257,1.0,0.3043478260869565,-203.0,0.712143928035982,-475.0,2.7691154422788604,-1847.0,4200.7326007326,2867.0,100.0,0.0,100.0,1.790960008185E12,-1.0,1.790960008214875E12,5546.875
285,1.0702114E7,1.0702114E7,326602.60009765625,1.0702114E7,0.9258373205741627,-1548.0,9.760765550239235,16320.0,0.06220095693779904,-104.0,0.009287925696594427,-9.0,0.015135878912968708,30.0,0.0034399724802201583,2.0,0.30134932533733133,-201.0,0.7166416791604198,-478.0,2.760119940029985,-1841.0,4200.7326007326,2867.0,100.0,0.0,100.0,1.790960008185E12,-1.0,1.7909600082344062E12,5566.40625
286,1.0702754E7,1.0702754E7,326622.13134765625,1.0702754E7,0.9282296650717703,-1552.0,9.758373205741627,16316.0,0.057416267942583726,-96.0,-0.008771929824561405,-7.0,-0.011351909184726514,27.0,-0.005503955968352257,3.0,0.3028485757121439,-202.0,0.7151424287856072,-477.0,2.75712143928036,-1839.0,4199.267399267399,2866.0,100.0,0.0,100.0,1.790960008185E12,-1.0,1.7909600082539375E12,5585.9375
287,1.0703394E7,1.0703394E7,326641.66259765625,1.0703394E7,0.9300239234449761,-1555.0,9.760167464114833,16319.0,0.05980861244019139,-100.0,5.15995872033022E-4,-8.0,0.013931888544891656,30.0,-0.014103887168902651,4.0,0.3103448275862069,-207.0,0.712143928035982,-475.0,2.7616191904047973,-1842.0,4199.267399267399,2866.0,100.0,0.0,100.0,1.790960008185E12,-1.0,1.7909600082734688E12,5605.46875
288,1.0704034E7,1.0704034E7,326661.19384765625,1.0704034E7,0.9282296650717703,-1552.0,9.758373205741627,16316.0,0.05801435406698564,-97.0,-0.025455796353629177,-5.0,-0.012555899552803566,27.0,-0.023047815617475063,5.0,0.3043478260869565,-203.0,0.7166416791604198,-478.0,2.7616191904047973,-1842.0,4197.802197802198,2865.0,100.0,0.0,100.0,1.790960008299E12,-1.0,1.790960008293E12,5625.0
289,1.0704674E7,1.0704674E7,326680.72509765625,1.0704674E7,0.9282296650717703,-1552.0,9.760765550239235,16320.0,0.056818181818181816,-95.0,0.010663914688682493,-9.0,-0.011867905056759536,27.0,0.02992776057791538,-1.0,0.3058470764617691,-204.0,0.7181409295352323,-479.0,2.7616191904047973,-1842.0,4196.336996336996,2864.0,100.0,0.0,100.0,1.790960008299E12,-1.0,1.7909600083125312E12,5644.53125
290,1.0705314E7,1.0705314E7,326700.25634765625,1.0705314E7,0.922846889952153,-1543.0,9.757775119617225,16315.0,0.05921052631578947,-99.0,-0.01633986928104575,-6.0,-0.020295837633298928,26.0,0.012039903680770556,1.0,0.3058470764617691,-204.0,0.7136431784107946,-476.0,2.758620689655172,-1840.0,4200.7326007326,2867.0,100.0,0.0,100.0,1.790960008299E12,-1.0,1.7909600083320625E12,5664.0625
291,1.0705954E7,1.0705954E7,326719.78759765625,1.0705954E7,0.9288277511961722,-1553.0,9.756578947368421,16313.0,0.05801435406698564,-97.0,0.009803921568627449,-9.0,0.023735810113519103,31.0,0.012039903680770552,1.0,0.3058470764617691,-204.0,0.7196401799100449,-480.0,2.760119940029985,-1841.0,4199.267399267399,2866.0,100.0,0.0,100.0,1.790960008299E12,-1.0,1.7909600083515938E12,5683.59375
292,1.0706594E7,1.0706594E7,326739.31884765625,1.0706594E7,0.923444976076555,-1544.0,9.757775119617225,16315.0,0.06399521531100479,-107.0,6.879944960440294E-4,-8.0,-0.020983832129342957,26.0,0.0034399724802201543,2.0,0.3073463268365817,-205.0,0.7181409295352323,-479.0,2.76311844077961,-1843.0,4200.7326007326,2867.0,100.0,0.0,100.0,1.790960008299E12,-1.0,1.790960008371125E12,5703.125
293,1.0707234E7,1.0707234E7,326758.85009765625,1.0707234E7,0.9282296650717703,-1552.0,9.760765550239235,16320.0,0.05980861244019139,-100.0,-0.025799793601651192,-5.0,0.03250773993808051,32.0,0.012039903680770552,1.0,0.3088455772113943,-206.0,0.7136431784107946,-476.0,2.7616191904047973,-1842.0,4199.267399267399,2866.0,100.0,0.0,100.0,1.790960008299E12,-1.0,1.7909600083906562E12,5722.65625
294,1.0707874E7,1.0707874E7,326778.38134765625,1.0707874E7,0.923444976076555,-1544.0,9.76255980861244,16323.0,0.05562200956937799,-93.0,0.009975920192638463,-9.0,-0.0034399724802201465,28.0,0.011351909184726526,1.0,0.3103448275862069,-207.0,0.7211394302848575,-481.0,2.758620689655172,-1840.0,4199.267399267399,2866.0,100.0,0.0,100.0,1.790960008423E12,-1.0,1.7909600084101875E12,5742.1875
295,1.0708514E7,1.0708514E7,326797.91259765625,1.0708514E7,0.9288277511961722,-1553.0,9.758971291866029,16317.0,0.0604066985645933,-101.0,-0.024939800481596146,-5.0,-0.012039903680770543,27.0,0.002235982112143103,2.0,0.3058470764617691,-204.0,0.7196401799100449,-480.0,2.752623688155922,-1836.0,4197.802197802198,2865.0,100.0,0.0,100.0,1.790960008423E12,-1.0,1.7909600084297188E12,5761.71875
296,1.0709154E7,1.0709154E7,326817.44384765625,1.0709154E7,0.9258373205741627,-1548.0,9.758373205741627,16316.0,0.05980861244019139,-100.0,-0.005675954592363257,-7.0,-0.020295837633298928,26.0,-0.007223942208462331,3.0,0.2983508245877061,-199.0,0.7151424287856072,-477.0,2.764617691154423,-1844.0,4200.7326007326,2867.0,100.0,0.0,100.0,1.790960008423E12,-1.0,1.79096000844925E12,5781.25
297,1.0709794E7,1.0709794E7,326836.97509765625,1.0709794E7,0.9258373205741627,-1548.0,9.76255980861244,16323.0,0.05980861244019139,-100.0,-0.022703818369453045,-5.0,-0.010835913312693493,27.0,-0.01565187478500172,4.0,0.3118440779610195,-208.0,0.7136431784107946,-476.0,2.758620689655172,-1840.0,4199.267399267399,2866.0,100.0,0.0,100.0,1.790960008423E12,-1.0,1.7909600084687812E12,5800.78125
298,1.0710434E7,1.0710434E7,326856.50634765625,1.0710434E7,0.9306220095693779,-1556.0,9.753588516746412,16308.0,0.05442583732057416,-91.0,0.02235982112143103,-10.0,-0.019091847265221874,26.0,0.028551771585827317,-1.0,0.3103448275862069,-207.0,0.7166416791604198,-478.0,2.764617691154423,-1844.0,4199.267399267399,2866.0,100.0,0.0,100.0,1.790960008423E12,-1.0,1.7909600084883125E12,5820.3125
299,1.0711074E7,1.0711074E7,326876.03759765625,1.0711074E7,0.9258373205741627,-1548.0,9.754186602870814,16309.0,0.06220095693779904,-104.0,0.021327829377364986,-10.0,-0.009975920192638457,27.0,0.00997592019263846,1.0,0.3103448275862069,-207.0,0.7106446776611693,-474.0,2.760119940029985,-1841.0,4199.267399267399,2866.0,100.0,0.0,100.0,1.790960008423E12,-1.0,1.7909600085078438E12,5839.84375
300,1.0711714E7,1.0711714E7,326895.56884765625,1.0711714E7,0.9258373205741627,-1548.0,9.76255980861244,16323.0,0.057416267942583726,-96.0,-0.0055039559683522496,-7.0,0.016511867905056765,30.0,-0.008255933952528383,3.0,0.3043478260869565,-203.0,0.7136431784107946,-476.0,2.7616191904047973,-1842.0,4199.267399267399,2866.0,100.0,0.0,100.0,1.790960008606E12,-1.0,1.790960008527375E12,5859.375
301,1.0712354E7,1.0712354E7,326915.10009765625,1.0712354E7,0.9288277511961722,-1553.0,9.760765550239235,16320.0,0.057416267942583726,-96.0,-0.005847953216374272,-7.0,-0.027519779841761266,25.0,0.009287925696594427,1.0,0.31634182908545727,-211.0,0.7211394302848575,-481.0,2.758620689655172,-1840.0,4200.7326007326,2867.0,100.0,0.0,100.0,1.790960008606E12,-1.0,1.7909600085469062E12,5878.90625
302,1.0712994E7,1.0712994E7,326934.63134765625,1.0712994E7,0.9288277511961722,-1553.0,9.757775119617225,16315.0,0.05442583732057416,-91.0,-0.02356381148950809,-5.0,0.007567939456484354,29.0,0.017371861025111804,0.0,0.3058470764617691,-204.0,0.7226386806596702,-482.0,2.758620689655172,-1840.0,4199.267399267399,2866.0,100.0,0.0,100.0,1.790960008606E12,-1.0,1.7909600085664375E12,5898.4375
303,1.0713634E7,1.0713634E7,326954.16259765625,1.0713634E7,0.9282296650717703,-1552.0,9.761363636363637,16321.0,0.06220095693779904,-104.0,0.020811833505331966,-10.0,-0.009975920192638457,27.0,0.0259717922256622,-1.0,0.3148425787106447,-210.0,0.712143928035982,-475.0,2.755622188905547,-1838.0,4200.7326007326,2867.0,100.0,0.0,100.0,1.790960008606E12,-1.0,1.7909600085859688E12,5917.96875
304,1.0714274E7,1.0714274E7,326973.69384765625,1.0714274E7,0.9258373205741627,-1548.0,9.758373205741627,16316.0,0.053229665071770335,-89.0,-0.006363949088407294,-7.0,0.007567939456484354,29.0,-0.02700378396972825,5.0,0.3058470764617691,-204.0,0.712143928035982,-475.0,2.755622188905547,-1838.0,4203.663003663003,2869.0,100.0,0.0,100.0,1.790960008606E12,-1.0,1.7909600086055E12,5937.5
305,1.0714914E7,1.0714914E7,326993.22509765625,1.0714914E7,0.923444976076555,-1544.0,9.76255980861244,16323.0,0.053229665071770335,-89.0,0.037839697282421744,-12.0,0.00773993808049536,29.0,0.01754385964912281,0.0,0.3103448275862069,-207.0,0.7151424287856072,-477.0,2.760119940029985,-1841.0,4199.267399267399,2866.0,100.0,0.0,100.0,1.790960008606E12,-1.0,1.7909600086250312E12,5957.03125
306,1.0715554E7,1.0715554E7,327012.75634765625,1.0715554E7,0.9258373205741627,-1548.0,9.761363636363637,16321.0,0.05980861244019139,-100.0,0.011351909184726523,-9.0,-0.018403852769177845,26.0,0.008427932576539387,1.0,0.3073463268365817,-205.0,0.7106446776611693,-474.0,2.758620689655172,-1840.0,4199.267399267399,2866.0,100.0,0.0,100.0,1.79096000873E12,-1.0,1.7909600086445625E12,5976.5625
