expansion,1f0400
config,800201e02000019bee08008010000000000002010080100000000000020109000000ffffffffffffffffffffffffffffffffffffffffffffffffffffffffffffffffffffffffffffffffffffffffffffffffffffffffffffffffffffffffffffff000000000000068706870687009c0064000000009c0000000000000000000000000000000000000000000000000000000000000000000000000000000000000000000000000000000000000000000000000000000000000000005368696d6d65725f3345333644656661756c74547269616c6aacfc19000131000000010000e8eb1b713e360100000000000000000000000000000000000000000000000000ffffffffffffffffffffffffffffffffffffffffffffffffffffffffffffffffffffffffffffffffffffffffffffffffffffffffffffffffffffffffffffffffffffffffffffffffffffffffffffffffffffffffffffffffffffffffffffffffffffffffffffffffffffffffffffffffffffffffffffffffffffffffffff0000
dump,
inquiry,8002019bee080c01000102031a1b0a0b0c070809
packet,Clock 3_LSB|CAL|Ticks,Clock 3_LSB|UNCAL|Ticks,Timestamp|CAL|ms,Timestamp|UNCAL|Ticks,Accel_LN_X|CAL|m/(s^2),Accel_LN_X|UNCAL|no_units,Accel_LN_Y|CAL|m/(s^2),Accel_LN_Y|UNCAL|no_units,Accel_LN_Z|CAL|m/(s^2),Accel_LN_Z|UNCAL|no_units,Gyro_X|CAL|deg/s,Gyro_X|UNCAL|no_units,Gyro_Y|CAL|deg/s,Gyro_Y|UNCAL|no_units,Gyro_Z|CAL|deg/s,Gyro_Z|UNCAL|no_units,Mag_X|CAL|local_flux,Mag_X|UNCAL|no_units,Mag_Y|CAL|local_flux,Mag_Y|UNCAL|no_units,Mag_Z|CAL|local_flux,Mag_Z|UNCAL|no_units,Battery|CAL|mV,Battery|UNCAL|no_units,Pressure_BMP180|CAL|kPa,Pressure_BMP180|UNCAL|no_units,Temperature_BMP180|CAL|Degrees Celsius,Temperature_BMP180|UNCAL|no_units,Batt_Percentage|CAL|%,Packet_Reception_Rate_Current|CAL|%,Packet_Reception_Rate_Trial|CAL|%,System_Timestamp|CAL|ms,Event_Marker|CAL|no_units,System_Timestamp_Plot|CAL|ms,System_Timestamp_Plot_Zeroed|CAL|ms
e803007c316bddb375c409af7d87b908942234bee86b47baa2cf9fac,1000.0,1000.0,30.517578125,1000.0,131.32530120481928,12668.0,-127.96385542168676,-8853.0,-338.3614457831325,30131.0,-411.6463414634147,-27614.0,841.8902439024391,13502.0,184.0548780487805,-6037.0,-16.69272727272727,18362.0,-21.688181818181818,-23857.0,25.16326530612245,-24660.0,3663.003663003663,2500.0,12.738769161342722,8894728.0,131.5527830595649,44925.0,13.71278402977623,0.0,100.0,1.79096E12,-1.0,1.79096E12,0.0
680600d46cf2c3cde0ce092b9d199c963e3270343ba9444acb8364ed,1640.0,1640.0,50.048828125,1640.0,209.89156626506025,27860.0,-311.0,-15374.0,120.89156626506025,-7987.0,-875.7317073170733,15922.0,-485.42682926829275,28724.0,-465.64024390243907,15273.0,-15.892727272727273,17482.0,-12.215454545454545,-13437.0,-26.364285714285717,25837.0,3677.655677655677,2510.0,1.7019978218511083,1678486.0,-62.618486050854756,11165.0,18.068491051439196,0.0,100.0,1.79096000002E12,-1.0,1.7909600000195312E12,19.53125
e8080079abd12b1858d80969777061e46ae3b18c0b1e65f2d2345943,2280.0,2280.0,69.580078125,2280.0,-110.48192771084338,-21639.0,285.3734939759036,11217.0,-247.04819277108436,22552.0,612.3170731707318,27363.0,-834.2378048780489,-20084.0,-86.76829268292684,2846.0,-23.725454545454546,26098.0,-10.658181818181818,-11724.0,-23.31734693877551,22851.0,3692.307692307692,2520.0,8.377913769674885,7365092.0,7.469027836178645,26999.0,22.374822677578777,0.0,100.0,1.79096000004E12,-1.0,1.7909600000390625E12,39.0625
680b00526091ff4e0ce20958fc25f41b742f3f8e0505a9a73b1daec9,2920.0,2920.0,89.111328125,2920.0,26.0,24658.0,-272.421686746988,-111.0,-13.289156626506024,3150.0,-496.0365853658537,29743.0,-906.798780487805,16270.0,-39.176829268292686,1285.0,20.095454545454544,-22105.0,13.757272727272728,15133.0,21.215306122448983,-20791.0,3706.9597069597066,2530.0,2.565973457604273,2487323.0,-46.96792413695579,22780.0,26.616498422808945,0.0,100.0,1.79096000006E12,-1.0,1.7909600000585938E12,58.59375
e80d00952c63dac0b4ec0918f18c961bfdd53e95e7a418d78cea1714,3560.0,3560.0,108.642578125,3560.0,140.67469879518072,11413.0,-112.8433734939759,-9629.0,256.7590361445783,-19264.0,-488.44512195121956,-555.0,16.920731707317074,16021.0,190.12195121951223,-6236.0,-5.780909090909091,6359.0,-26.783636363636365,-29462.0,-6.028571428571429,5908.0,3721.6117216117214,2540.0,8.188866547273724,9213467.0,-96.68992931049722,6385.0,30.779465304338373,0.0,100.0,1.79096000008E12,-1.0,1.790960000078125E12,78.125
6810004a895119d479f609d29de45d46b7a958cc2778fd95e4ee8f6e,4200.0,4200.0,128.173828125,4200.0,-53.42168674698795,-30390.0,390.8072289156627,6481.0,-351.0963855421687,31188.0,-693.048780487805,-18519.0,564.6036585365854,22732.0,-308.0487804878049,10104.0,0.5627272727272727,-619.0,-6.3,-6930.0,29.406122448979595,-28818.0,3736.263736263736,2550.0,22.82448217301808,1.4966086E7,188.9441174782685,53917.0,34.85089783894364,0.0,100.0,1.7909600001E12,-1.0,1.7909600000976562E12,97.65625
e812009f4a43ec4f0d000a1b402de0a415090650d0df56d4210da2f4,4840.0,4840.0,147.705078125,4840.0,85.5421686746988,19103.0,-205.49397590361446,-5053.0,-16.3855421686747,3407.0,-49.268292682926834,5385.0,-164.1768292682927,1616.0,367.8353658536586,-12065.0,-20.207272727272727,22228.0,7.691818181818181,8461.0,24.306122448979593,-23820.0,3750.915750915751,2560.0,2.7633853573902547,3006628.0,-92.64103989313239,6976.0,38.819198044831865,0.0,100.0,1.79096000012E12,-1.0,1.7909600001171875E12,117.1875
681500d176ca47e1c30a0ada27c2b99ec1f2465d6e8436afa602cb9a,5480.0,5480.0,167.236328125,5480.0,-196.75903614457832,30417.0,-341.8072289156627,18378.0,210.0963855421687,-15391.0,-549.1768292682927,-15886.0,484.32926829268297,18013.0,-862.5609756097562,28292.0,-12.726363636363637,13999.0,-20.943636363636365,-23038.0,13.687755102040818,-13414.0,3765.5677655677655,2570.0,19.67043202302082,1.2761502E7,201.18254560335262,55847.0,42.673995440942235,0.0,100.0,1.79096000014E12,-1.0,1.7909600001367188E12,136.71875
e81700d0973d35dd05140abff302a8cc4c7781324ff9456aff4d33fe,6120.0,6120.0,186.767578125,6120.0,-139.54216867469881,-26672.0,346.0120481927711,13629.0,6.578313253012048,1501.0,989.6951219512196,19575.0,-596.798780487805,-32462.0,-624.1768292682927,20473.0,-16.154545454545456,17770.0,-0.16272727272727272,-179.0,-13.581632653061225,13310.0,3780.2197802197798,2580.0,0.38936532889023145,174284.0,158.54250059145764,49139.0,46.40614704671316,0.0,100.0,1.79096000016E12,-1.0,1.79096000015625E12,156.25
681a0049cda9cc46841e0ae6ceec50b49a04d1299d7aeef8104bd85d,6760.0,6760.0,206.298828125,6760.0,183.0120481927711,-12983.0,181.0843373493976,-13143.0,406.27710843373495,-31674.0,365.57926829268297,-26108.0,795.9756097560976,-11991.0,768.9634146341464,-25222.0,3.963636363636364,-4360.0,3.791818181818182,4171.0,10.354081632653061,-10147.0,3794.8717948717945,2590.0,24.14799168885851,1.5487156E7,221.68130802865613,59086.0,50.0077373823151,0.0,100.0,1.79096000018E12,-1.0,1.7909600001757812E12,175.78125
e81c00ad6595545406280abc68bbebbbe48d1deaf7e45cb95f7e728c,7400.0,7400.0,225.830078125,7400.0,-236.21686746987953,26029.0,-288.9397590361446,21653.0,5.144578313253012,1620.0,-233.47560975609758,-7027.0,214.2378048780488,7658.0,63.29268292682927,-2076.0,-21.579090909090908,23737.0,22.223636363636363,24446.0,-29.922448979591838,29324.0,3809.523809523809,2600.0,18.098122917077767,1.2315579E7,152.75020651833728,48232.0,53.472078468999825,0.0,100.0,1.7909600002E12,-1.0,1.7909600001953125E12,195.3125
681f00a086cd4d5935320ae08d06ce00af3c5bdec8f7b4df188b2702,8040.0,8040.0,245.361328125,8040.0,-215.30120481927713,-31072.0,399.0240963855422,19917.0,-139.87951807228916,13657.0,-717.0121951219513,-20676.0,630.3658536585366,23518.0,429.5426829268293,-14089.0,17.484545454545454,-19233.0,5.711818181818182,6283.0,-10.189795918367349,9986.0,3824.175824175824,2610.0,0.8242292780217099,445952.0,211.55470636500814,57485.0,56.79370982898399,0.0,100.0,1.79096000022E12,-1.0,1.7909600002148438E12,214.84375
e82100938421aab2b33c0a914d1d0cd0259b3c89b46cefc7d92cb350,8680.0,8680.0,264.892578125,8680.0,289.51807228915663,-31597.0,405.3493975903615,-21983.0,260.0120481927711,-19534.0,-472.469512195122,9627.0,-293.50609756097566,15497.0,589.8780487804878,-19348.0,3.7754545454545454,-4153.0,-9.036363636363637,-9940.0,20.03265306122449,-19632.0,3838.8278388278386,2620.0,2.6067923640570836,1903824.0,81.20069705008379,37197.0,59.968398484401405,0.0,100.0,1.79096000024E12,-1.0,1.790960000234375E12,234.375
6824003cff25b17566460a2598f789cd6442b6d35023af9399b67e9c,9320.0,9320.0,284.423828125,9320.0,267.87951807228916,-196.0,27.02409638554217,-20187.0,-291.34939759036143,26229.0,571.1280487804878,25666.0,-782.5000000000001,-18733.0,-625.4573170731708,20515.0,18.71727272727273,-20589.0,-23.805454545454545,-26186.0,-33.073469387755104,32412.0,3853.4798534798533,2630.0,15.159954971576239,1.6222669E7,-74.01465147588567,9624.0,62.99313895928208,0.0,100.0,1.79096000026E12,-1.0,1.7909600002539062E12,253.90625
e82600fe16cfd73a9a500a58a8e83cc82c8365f07d8a7db2ee652bb6,9960.0,9960.0,303.955078125,9960.0,148.6265060240964,5886.0,-46.25301204819277,-10289.0,338.566265060241,-26054.0,-795.6097560975611,11395.0,-347.4085365853659,26096.0,-979.8170731707318,32138.0,-29.252727272727274,32178.0,-4.097272727272728,-4507.0,-11.418367346938776,11190.0,3868.131868131868,2640.0,15.103944071845206,1.5219912E7,-49.049051299651474,22696.0,65.86615327803884,0.0,100.0,1.79096000028E12,-1.0,1.7909600002734375E12,273.4375
6829004a5a4a25e8a75a0a87b45043456caea2dd67980db497fe0d75,10600.0,10600.0,323.486328125,10600.0,-90.34939759036145,23114.0,-253.81927710843374,9546.0,296.3734939759036,-22552.0,726.9207317073171,27822.0,-848.2317073170733,-23843.0,-808.5365853658537,26520.0,-3.189090909090909,3508.0,-24.205454545454547,-26626.0,-3.51530612244898,3445.0,3882.7838827838827,2650.0,6.773247093502119,5260101.0,64.72871403472233,34740.0,68.58689096546732,0.0,100.0,1.7909600003E12,-1.0,1.7909600002929688E12,292.96875
e82b00b26e14577bf9640a2f6016652d3fb79aaad52575dece6d6ee1,11240.0,11240.0,343.017578125,11240.0,-243.91566265060243,28338.0,-316.7590361445783,22292.0,44.7710843373494,-1669.0,790.9146341463415,16311.0,-497.2865853658537,-25942.0,334.4817073170732,-10971.0,-27.43090909090909,30174.0,-11.537272727272727,-12691.0,-28.964285714285715,28385.0,3897.435897435897,2660.0,1.5273017721803492,1467693.0,-55.15757450139627,12128.0,71.1560290469788,0.0,100.0,1.79096000032E12,-1.0,1.7909600003125E12,312.5
682e006bd36c6cd3186e0a0d4b75fa6abd94919cc4db8a484ce7f4cb,11880.0,11880.0,362.548828125,11880.0,-309.7469879518072,-11413.0,162.1686746987952,27756.0,-51.90361445783133,6355.0,861.5853658536586,-17004.0,518.4146341463415,-28260.0,461.61585365853665,-15141.0,27.396363636363635,-30136.0,17.89727272727273,19687.0,2.9275510204081634,-2869.0,3912.0879120879117,2670.0,6.55912047946334,7731818.0,-116.73875292951136,3403.0,73.57547204964794,0.0,100.0,1.79096000034E12,-1.0,1.7909600003320312E12,332.03125
e830000eaf938b978c780a422dda236267f189d66148a78feb822950,12520.0,12520.0,382.080078125,12520.0,383.7590361445783,-20722.0,274.3253012048193,-29805.0,380.6265060240964,-29545.0,922.2560975609757,26609.0,-811.2500000000001,-30250.0,-759.2682926829269,24904.0,20.582727272727272,-22641.0,-4.7690909090909095,-5246.0,-10.791836734693879,10576.0,3926.7399267399264,2680.0,15.70382232841202,1.4295906E7,-5.397619941537454,16941.0,75.84835200116504,0.0,100.0,1.79096000036E12,-1.0,1.7909600003515625E12,351.5625
683300310fbb245fba820a16287d7f7ddaf798e52eee8bd8ba987bee,13160.0,13160.0,401.611328125,13160.0,-88.62650602409639,3889.0,-22.192771084337352,9403.0,239.42168674698797,-17825.0,804.7256097560976,-9481.0,289.0548780487805,-26395.0,-366.2804878048781,12014.0,27.03272727272727,-29736.0,-16.152727272727272,-17768.0,-32.37346938775511,31726.0,3941.391941391941,2690.0,7.2343789287515685,8224637.0,-101.53626099369986,5672.0,77.97902842913754,0.0,100.0,1.79096000038E12,-1.0,1.7909600003710938E12,371.09375
e83500849afaf1070f8c0a1b5c33ec47a4d9db687e55d92f1a14aaa9,13800.0,13800.0,421.142578125,13800.0,67.91566265060241,-25980.0,337.67469879518075,-3590.0,-21.686746987951807,3847.0,285.609756097561,-23335.0,711.4329268292684,-9368.0,-986.0060975609757,32341.0,9.033636363636363,-9937.0,6.069090909090909,6676.0,22.292857142857144,-21847.0,3956.043956043956,2700.0,3.1162311769757802,3402823.0,-92.44842733741687,7004.0,79.97308836306911,0.0,100.0,1.7909600004E12,-1.0,1.790960000390625E12,390.625
683800004c11426fd4960a737ccdf918b318804be2275a3c3bda5548,14440.0,14440.0,440.673828125,14440.0,-179.10843373493978,19456.0,-209.74698795180723,16913.0,159.03614457831327,-11153.0,996.7378048780489,-19688.0,600.2439024390244,-32693.0,232.95731707317074,-7641.0,-21.0,23100.0,13.92909090909091,15322.0,-22.277551020408165,21832.0,3970.6959706959706,2710.0,15.964448352953152,1.3498648E7,28.0860442022518,29564.0,81.83734633214772,0.0,100.0,1.79096000042E12,-1.0,1.7909600004101562E12,410.15625
e83a00f1f2615fd60aa00a8685d475620df97eac35ad7c5adc90779f,15080.0,15080.0,460.205078125,15080.0,-269.51807228915663,-3343.0,64.93975903614458,24417.0,-8.759036144578314,2774.0,-988.6585365853659,3577.0,-109.0548780487805,32428.0,-418.93292682926835,13741.0,-28.94,31834.0,-8.247272727272728,-9072.0,-31.247959183673473,30623.0,3985.3479853479853,2720.0,17.667326009005656,1.3923682E7,62.67041421635124,34437.0,83.57984436734114,0.0,100.0,1.79096000044E12,-1.0,1.7909600004296875E12,429.6875
683d009bde3269d093aa0af934d111273309fcdec82dab7b75bc2a13,15720.0,15720.0,479.736328125,15720.0,-299.7951807228916,-8549.0,127.66265060240964,26930.0,358.3493975903615,-27696.0,24.451219512195124,13065.0,-398.32317073170736,-802.0,435.70121951219517,-14291.0,19.67,-21637.0,27.4,30140.0,-10.990816326530613,10771.0,3999.9999999999995,2730.0,21.57920580328631,1.3701415E7,251.4200850281773,63796.0,85.20985199999996,0.0,100.0,1.79096000046E12,-1.0,1.7909600004492188E12,449.21875
e83f00f4f496305e01b40ab56509b48b747f45182d3404d9354488aa,16360.0,16360.0,499.267578125,16360.0,-125.19277108433735,-2828.0,58.734939759036145,12438.0,20.44578313253012,350.0,-539.2682926829269,29823.0,-909.2378048780489,17688.0,-352.8048780487805,11572.0,-1.1281818181818182,1241.0,12.396363636363636,13636.0,31.173469387755105,-30550.0,4014.6520146520143,2740.0,1.0450931269405268,636043.0,141.26130671220534,46437.0,86.73786626209039,0.0,100.0,1.79096000048E12,-1.0,1.79096000046875E12,468.75
684200dacf1b5fc863be0a9e5b3ca60cb3beed1269b6e9b6775768e2,17000.0,17000.0,518.798828125,17000.0,-268.67469879518075,-12326.0,173.1686746987952,24347.0,-283.09638554216866,25544.0,147.7439024390244,-19522.0,595.1829268292684,-4846.0,-825.0609756097562,27062.0,5.1872727272727275,-5706.0,27.773636363636363,30551.0,-27.39795918367347,26850.0,4029.304029304029,2750.0,5.515284181635878,3974668.0,103.1693110002742,40539.0,88.17561168642715,0.0,100.0,1.7909600005E12,-1.0,1.7909600004882812E12,488.28125
e8440066a444ca7012c80a3271c986a755a73ea83fe5688ba5fc0211,17640.0,17640.0,538.330078125,17640.0,190.3975903614458,-23450.0,307.1927710843374,-13756.0,-32.204819277108435,4720.0,-489.0243902439025,21927.0,-668.5060975609757,16040.0,-498.68902439024396,16357.0,-24.33,26763.0,-20.94909090909091,-23044.0,-0.539795918367347,529.0,4043.9560439560437,2760.0,13.126946530154466,1.3207207E7,-48.79655467603608,12913.0,89.5360403067898,0.0,100.0,1.79096000052E12,-1.0,1.7909600005078125E12,507.8125
68470052e3fd0e0b4bd20a5d2951e9e154cda0336815189673555abb,18280.0,18280.0,557.861328125,18280.0,-21.566265060240966,-7342.0,113.12048192771086,3837.0,-206.7951807228916,19211.0,747.7134146341464,21709.0,-661.859756097561,-24525.0,-812.3475609756098,26645.0,-5.721818181818182,6294.0,26.84090909090909,29525.0,-23.701020408163266,23227.0,4058.6080586080584,2770.0,5.678302964292394,5368289.0,-26.88880876688949,23849.0,90.83333165710792,0.0,100.0,1.79096000054E12,-1.0,1.7909600005273438E12,527.34375
e849001eb5cbbd79abdc0accdde177aa4c39f18c3f01b04c4479883a,18920.0,18920.0,577.392578125,18920.0,228.8674698795181,-19170.0,255.6265060240964,-16949.0,285.3734939759036,-21639.0,112.8048780487805,19513.0,-594.9085365853659,-3700.0,-491.73780487804885,16129.0,18.54909090909091,-20404.0,15.935454545454546,17529.0,31.28775510204082,-30662.0,4073.260073260073,2780.0,22.344234224324342,1.4776234E7,179.59541785973906,52445.0,92.08289277390577,0.0,100.0,1.79096000056E12,-1.0,1.790960000546875E12,546.875
684c0095ece9289598e60a668d38cfcbee7b743faa00cad413ebbca0,19560.0,19560.0,596.923828125,19560.0,-101.51807228915663,-4971.0,84.55421686746989,10473.0,343.6385542168675,-26475.0,-907.2865853658537,-4485.0,136.7378048780488,29759.0,671.219512195122,-22016.0,12.374545454545455,-13612.0,4.635454545454546,5099.0,17.6,-17248.0,4087.912087912088,2790.0,4.226650920483273,3723211.0,0.7321276505768963,26253.0,93.30135819187853,0.0,100.0,1.79096000058E12,-1.0,1.7909600005664062E12,566.40625
e84e00b7649d6767a8f00a82ec12276cd78031f9c46efc6861d53532,20200.0,20200.0,616.455078125,20200.0,-294.9156626506024,25783.0,-285.9759036144578,26525.0,294.84337349397595,-22425.0,-390.0304878048781,-10368.0,316.0975609756098,12793.0,464.93902439024396,-15250.0,0.8363636363636363,-920.0,22.76818181818182,25045.0,-13.89591836734694,13618.0,4102.5641025641025,2800.0,1.599696227906716,1189740.0,56.36755216752353,33516.0,94.50658994843252,0.0,100.0,1.7909600006E12,-1.0,1.7909600005859375E12,585.9375
6851001d010d42b632fa0aaf00290f54c7ced31ab8540133a9650bc4,20840.0,20840.0,635.986328125,20840.0,-179.06024096385542,285.0,21.228915662650603,16909.0,-131.74698795180723,12982.0,350.4268292682927,-14386.0,438.5975609756098,-11494.0,559.3902439024391,-18348.0,-0.2790909090909091,307.0,-20.155454545454546,-22171.0,-3.0734693877551025,3012.0,4117.216117216117,2810.0,3.938861911267211,2690900.0,130.74871577867611,44800.0,95.71767758100759,0.0,100.0,1.79096000062E12,-1.0,1.7909600006054688E12,605.46875
e85300f7c5c0b491e8040b057b3ffcebed7807824250bfad6faf096f,21480.0,21480.0,655.517578125,21480.0,256.7590361445783,-14857.0,203.66265060240966,-19264.0,96.93975903614458,-5999.0,-58.59756097560976,-4744.0,144.63414634146343,1922.0,-517.5609756097562,16976.0,14.97,-16467.0,25.991818181818182,28591.0,-2.4642857142857144,2415.0,4131.868131868132,2820.0,3.4863491298012113,4193515.0,-129.93444522241532,1403.0,96.95493812835775,0.0,100.0,1.79096000064E12,-1.0,1.790960000625E12,625.0
685600fd005811adcb0e0b9fd8a9b7ff23b35a71abc09d15c46757e8,22120.0,22120.0,675.048828125,22120.0,-28.83132530120482,253.0,21.614457831325304,4440.0,186.04819277108436,-13395.0,-705.8841463414635,9139.0,-278.6280487804878,23153.0,657.5609756097562,-21568.0,23.02090909090909,-25323.0,-13.87,-15257.0,-22.96326530612245,22504.0,4146.520146520146,2830.0,15.275182402804687,1.1122687E7,105.65143157220443,40920.0,98.23991612868849,0.0,100.0,1.79096000066E12,-1.0,1.7909600006445312E12,644.53125
e85800824948ce539b180b990782b67b175172f722571e090460c794,22760.0,22760.0,694.580078125,22760.0,178.0120481927711,18818.0,-202.06024096385542,-12728.0,335.1807228915663,-25773.0,-897.2865853658537,5969.0,-181.9817073170732,29431.0,-268.01829268292687,8791.0,-6.99,7689.0,1.018181818181818,1120.0,14.738775510204084,-14444.0,4161.1721611721605,2840.0,11.566577050014123,8566395.0,94.24956707650996,39175.0,99.59538362326566,0.0,100.0,1.79096000068E12,-1.0,1.7909600006640625E12,664.0625
685b00bd6e9c2f6ef6220ba253aeda98ce25abcc154542ccd9133fad,23400.0,23400.0,714.111328125,23400.0,-122.18072289156628,28349.0,-316.89156626506025,12188.0,54.18072289156627,-2450.0,657.1951219512196,-12763.0,389.1158536585366,-21556.0,-166.00609756097563,5445.0,-15.545454545454545,17100.0,-9.059090909090909,-9965.0,-16.633673469387755,16301.0,4175.824175824176,2850.0,15.840399986659023,1.1459224E7,109.78020547763772,41555.0,100.0,0.0,100.0,1.7909600007E12,-1.0,1.7909600006835938E12,683.59375
e85d0064e421f47aa22c0b830cf83eead427ce5fc7f44242a797a7b5,24040.0,24040.0,733.642578125,24040.0,61.277108433734945,-7068.0,109.81927710843374,-3039.0,313.12048192771084,-23942.0,387.3475609756098,-11225.0,342.2256097560976,-12705.0,437.43902439024396,-14348.0,-15.42,16962.0,-20.575454545454544,-22633.0,23.064285714285717,-22603.0,4190.47619047619,2860.0,20.38061012137091,1.6269034E7,56.58782152788399,33548.0,100.0,0.0,100.0,1.79096000072E12,-1.0,1.790960000703125E12,703.125
68600031bda602336d360bf282fed2dc3ae60cdf08bbe252388b5d0a,24680.0,24680.0,753.173828125,24680.0,16.49397590361446,-17103.0,230.72289156626508,678.0,-312.144578313253,27955.0,-100.45731707317074,15078.0,-459.69512195121956,3295.0,-68.14024390243902,2235.0,6.907272727272727,-7598.0,13.159090909090908,14475.0,-24.304081632653062,23818.0,4205.128205128205,2870.0,26.219360481123488,1.6700124E7,240.606064660806,62082.0,100.0,0.0,100.0,1.79096000074E12,-1.0,1.7909600007226562E12,722.65625
e8620083558b933240400b1773b74957147583b7ca3d7d4efd354a2d,25320.0,25320.0,772.705078125,25320.0,359.1807228915663,21891.0,-239.0843373493976,-27765.0,-173.33734939759037,16434.0,970.0304878048781,5237.0,-159.66463414634148,-31817.0,419.6036585365854,-13763.0,-29.16181818181818,32078.0,-0.65,-715.0,-19.3765306122449,18989.0,4219.780219780219,2880.0,10.580730520456063,1.2011863E7,-99.2912836837312,6003.0,100.0,0.0,100.0,1.79096000076E12,-1.0,1.7909600007421875E12,742.1875
6865009481c61a91ad4a0bfa9fc36118111f0386eaf5b65af80442c7,25960.0,25960.0,792.236328125,25960.0,-57.915662650602414,-32364.0,414.5903614457832,6854.0,278.9156626506024,-21103.0,-27.500000000000004,4383.0,-133.62804878048783,902.0,164.2378048780488,-5387.0,17.14,-18854.0,-1.8581818181818182,-2044.0,-17.44387755102041,17095.0,4234.4322344322345,2890.0,20.179965367706263,1.2804376E7,253.70928168104416,64159.0,100.0,0.0,100.0,1.79096000078E12,-1.0,1.7909600007617188E12,761.71875
