expansion,300402
config,800201e02000019bee08008010000000000002010080100000000000020109000000ffffffffffffffffffffffffffffffffffffffffffffffffffffffffffffffffffffffffffffffffffffffffffffffffffffffffffffffffffffffffffffff000000000000068706870687009c0064000000009c0000000000000000000000000000000000000000000000000000000000000000000000000000000000000000000000000000000000000000000000000000000000000000005368696d6d65725f3345333644656661756c74547269616c6aacfc19000131000000010000e8eb1b713e360100000000000000000000000000000000000000000000000000ffffffffffffffffffffffffffffffffffffffffffffffffffffffffffffffffffffffffffffffffffffffffffffffffffffffffffffffffffffffffffffffffffffffffffffffffffffffffffffffffffffffffffffffffffffffffffffffffffffffffffffffffffffffffffffffffffffffffffffffffffffffffffff0000
dump,ad000300030001000103020000150100000000000000083407d0089800550058005a029d019e0003ff029c1e00021501000000000000000009000900090bb80bb80bb8009c009c000000009c1e0002150100000000000000ffd8001900030cc60ce40cef019c029dff0000039e200000150100000000000000001effd3000c0280028f02bc029e006301fc00039c6300001501000000000000000001000200030004000500060708090a0b0c0d0e0f
inquiry,8002019bee080c01000102031a1b0a0b0c070809
packet,Clock 3_LSB|CAL|Ticks,Clock 3_LSB|UNCAL|Ticks,Timestamp|CAL|ms,Timestamp|UNCAL|Ticks,Accel_LN_X|CAL|m/(s^2),Accel_LN_X|UNCAL|no_units,Accel_LN_Y|CAL|m/(s^2),Accel_LN_Y|UNCAL|no_units,Accel_LN_Z|CAL|m/(s^2),Accel_LN_Z|UNCAL|no_units,Gyro_X|CAL|deg/s,Gyro_X|UNCAL|no_units,Gyro_Y|CAL|deg/s,Gyro_Y|UNCAL|no_units,Gyro_Z|CAL|deg/s,Gyro_Z|UNCAL|no_units,Mag_X|CAL|local_flux,Mag_X|UNCAL|no_units,Mag_Y|CAL|local_flux,Mag_Y|UNCAL|no_units,Mag_Z|CAL|local_flux,Mag_Z|UNCAL|no_units,Battery|CAL|mV,Battery|UNCAL|no_units,Pressure_BMP280|CAL|kPa,Pressure_BMP280|UNCAL|no_units,Temperature_BMP280|CAL|Degrees Celsius,Temperature_BMP280|UNCAL|no_units,Batt_Percentage|CAL|%,Packet_Reception_Rate_Current|CAL|%,Packet_Reception_Rate_Trial|CAL|%,System_Timestamp|CAL|ms,Event_Marker|CAL|no_units,System_Timestamp_Plot|CAL|ms,System_Timestamp_Plot_Zeroed|CAL|ms
e803007c316bddb375c409af7d87b908942234bee86b47baa2cf9fac,1000.0,1000.0,30.517578125,1000.0,116.23315985634206,12668.0,-126.40919006668935,-8853.0,-314.0349598443417,30131.0,-421.03701363746967,-27614.0,843.2704107155561,13502.0,211.9595318931873,-6037.0,-18.042755039016274,-17849.0,28.137839182877222,-12382.0,31.354135175486316,-21345.0,3663.003663003663,2500.0,83.59048366803641,8894728.0,86.95473216462415,44925.0,13.71278402977623,0.0,100.0,1.79096E12,-1.0,1.79096E12,0.0
680600d46cf2c3cde0ce092b9d199c963e3270343ba9444acb8364ed,1640.0,1640.0,50.048828125,1640.0,204.67910936045445,27860.0,-300.92323738558275,-15374.0,105.1236330475727,-7987.0,-873.3341067834469,15922.0,-506.5900951054323,28724.0,-486.1098731337172,15273.0,-48.41252324903475,19012.0,-31.252679045898674,-31797.0,5.885276771480182,-4764.0,3677.655677655677,2510.0,129.54474204009767,1678486.0,-83.15944593411405,11165.0,18.068491051439196,0.0,100.0,1.79096000002E12,-1.0,1.7909600000195312E12,19.53125
e8080079abd12b1858d80969777061e46ae3b18c0b1e65f2d2345943,2280.0,2280.0,69.580078125,2280.0,-113.5938806489227,-21639.0,277.59193916238587,11217.0,-219.4455557435964,22552.0,623.9434285016046,27363.0,-834.0357852952137,-20084.0,-113.14935821638866,2846.0,19.874347476907825,-3483.0,6.00668311177363,13522.0,-24.432656649503933,17241.0,3692.307692307692,2520.0,88.99942357871208,7365092.0,-2.546990656410344,26999.0,22.374822677578777,0.0,100.0,1.79096000004E12,-1.0,1.7909600000390625E12,39.0625
680b00526091ff4e0ce20958fc25f41b742f3f8e0505a9a73b1daec9,2920.0,2920.0,89.111328125,2920.0,23.98380207500116,24658.0,-267.74753807676365,-111.0,-16.150344337840842,3150.0,-487.9822844475804,29743.0,-917.0265669622706,16270.0,-67.58185420779294,1285.0,12.08944411812794,-22615.0,36.351634063635274,7483.0,20.973406164766196,-13906.0,3706.9597069597066,2530.0,134.81323131081882,2487323.0,-23.883716167882085,22780.0,26.616498422808945,0.0,100.0,1.79096000006E12,-1.0,1.7909600000585938E12,58.59375
e80d00952c63dac0b4ec0918f18c961bfdd53e95e7a418d78cea1714,3560.0,3560.0,108.642578125,3560.0,142.03727098938157,11413.0,-105.42864750532972,-9629.0,234.9599432288885,-19264.0,-489.7720540662751,-555.0,14.70607983395238,16021.0,192.72824503045092,-6236.0,-8.843426077792651,-10472.0,16.56378212086138,-5492.0,-6.833086536374158,5143.0,3721.6117216117214,2540.0,59.46028337198912,9213467.0,-107.7816716163652,6385.0,30.779465304338373,0.0,100.0,1.79096000008E12,-1.0,1.790960000078125E12,78.125
6810004a895119d479f609d29de45d46b7a958cc2778fd95e4ee8f6e,4200.0,4200.0,128.173828125,4200.0,-61.56698131445407,-30390.0,381.68238260315263,6481.0,-313.83957142368126,31188.0,-700.6192307076651,-18519.0,552.2129309679316,22732.0,-294.39551820676763,10104.0,-8.701600151357084,-27139.0,43.14033724180905,-4380.0,-39.121504168460014,28303.0,3736.263736263736,2550.0,13.421969628706659,1.4966086E7,131.145937569323,53917.0,34.85089783894364,0.0,100.0,1.7909600001E12,-1.0,1.7909600000976562E12,97.65625
e812009f4a43ec4f0d000a1b402de0a415090650d0df56d4210da2f4,4840.0,4840.0,147.705078125,4840.0,81.2251703132519,19103.0,-200.5991355218473,-5053.0,-18.235345524680575,3407.0,-47.09272823715063,5385.0,-159.0320257342098,1616.0,367.052111047227,-12065.0,5.261385277459459,-11178.0,17.97727316892775,3361.0,4.713603909353546,-2910.0,3750.915750915751,2560.0,113.32302539397504,3006628.0,-104.73017027974129,6976.0,38.819198044831865,0.0,100.0,1.79096000012E12,-1.0,1.7909600001171875E12,117.1875
681500d176ca47e1c30a0ada27c2b99ec1f2465d6e8436afa602cb9a,5480.0,5480.0,167.236328125,5480.0,-184.079312430224,30417.0,-338.30046396483544,18378.0,190.5303394005611,-15391.0,-555.2623394391726,-15886.0,461.88069538717787,18013.0,-857.6918590866537,28292.0,2.317170311317744,-20682.0,33.070248373700366,678.0,38.022107451211006,-25909.0,3765.5677655677655,2570.0,40.940081419111955,1.2761502E7,140.56957786052953,55847.0,42.673995440942235,0.0,100.0,1.79096000014E12,-1.0,1.7909600001367188E12,136.71875
e81700d0973d35dd05140abff302a8cc4c7781324ff9456aff4d33fe,6120.0,6120.0,186.767578125,6120.0,-134.3579634355921,-26672.0,339.359528027235,13629.0,15.89743686156729,1501.0,1000.4877073744283,19575.0,-602.8284846138421,-32462.0,-649.3133443181644,20473.0,31.268047200889846,27205.0,-42.68936383263491,19967.0,-0.6049666292647613,-461.0,3780.2197802197798,2580.0,193.88098627559305,174284.0,107.72304427984636,49139.0,46.40614704671316,0.0,100.0,1.79096000016E12,-1.0,1.79096000015625E12,156.25
681a0049cda9cc46841e0ae6ceec50b49a04d1299d7aeef8104bd85d,6760.0,6760.0,206.298828125,6760.0,187.1702372449891,-12983.0,186.84130564001055,-13143.0,378.24290151812806,-31674.0,359.548394285297,-26108.0,816.8301778768181,-11991.0,802.4074795728847,-25222.0,28.28595589011314,-1810.0,3.5109378753084317,19216.0,-34.19752900659789,24024.0,3794.8717948717945,2590.0,7.140776237557374,1.5487156E7,156.335965547245,59086.0,50.0077373823151,0.0,100.0,1.79096000018E12,-1.0,1.7909600001757812E12,175.78125
e81c00ad6595545406280abc68bbebbbe48d1deaf7e45cb95f7e728c,7400.0,7400.0,225.830078125,7400.0,-227.79717659289594,26029.0,-288.93348800624136,21653.0,2.9437464502485766,1620.0,-235.78814702329277,-7027.0,212.72352500295017,7658.0,70.58408512704808,-2076.0,51.40125852766162,-18084.0,29.9297450719931,32351.0,43.17503520930265,-29582.0,3809.523809523809,2600.0,44.464547410557756,1.2315579E7,103.26170759648085,48232.0,53.472078468999825,0.0,100.0,1.7909600002E12,-1.0,1.7909600001953125E12,195.3125
681f00a086cd4d5935320ae08d06ce00af3c5bdec8f7b4df188b2702,8040.0,8040.0,245.361328125,8040.0,-211.35165322016113,-31072.0,388.7451259146601,19917.0,-117.4115809495052,13657.0,-725.4929084055966,-20676.0,632.8888412449724,23518.0,453.67169687956147,-14089.0,-46.22406597864292,-8268.0,12.28688130655831,-29928.0,-0.4013935608032507,551.0,3824.175824175824,2610.0,201.1202660489249,445952.0,148.5504559240071,57485.0,56.79370982898399,0.0,100.0,1.79096000022E12,-1.0,1.7909600002148438E12,214.84375
e82100938421aab2b33c0a914d1d0cd0259b3c89b46cefc7d92cb350,8680.0,8680.0,264.892578125,8680.0,285.65131044285647,-31597.0,408.70341895771753,-21983.0,246.80644416361469,-19534.0,-470.6693501182562,9627.0,-288.58282314112364,15497.0,587.5390837521782,-19348.0,16.3761360375646,-14353.0,23.266285939542136,11481.0,-28.79772570752802,20659.0,3838.8278388278386,2620.0,157.88764795866115,1903824.0,48.59940088901203,37197.0,59.968398484401405,0.0,100.0,1.79096000024E12,-1.0,1.790960000234375E12,234.375
6824003cff25b17566460a2598f789cd6442b6d35023af9399b67e9c,9320.0,9320.0,284.423828125,9320.0,249.03916468065032,-196.0,29.59967184697758,-20187.0,-268.88728709875585,26229.0,582.180277705971,25666.0,-793.4232504668739,-18733.0,-656.4422646431731,20515.0,-27.826245323131847,-27729.0,43.69072713626262,-18791.0,37.719293242659305,-25474.0,3853.4798534798533,2630.0,0.3117620159992931,1.6222669E7,-91.08275402337313,9624.0,62.99313895928208,0.0,100.0,1.79096000026E12,-1.0,1.7909600002539062E12,253.90625
e82600fe16cfd73a9a500a58a8e83cc82c8365f07d8a7db2ee652bb6,9960.0,9960.0,303.955078125,9960.0,152.03760503176179,5886.0,-38.771766818673306,-10289.0,311.63752194664227,-26054.0,-794.1955124338486,11395.0,-377.67457207929965,26096.0,-1001.9213676257366,32138.0,41.11252450022206,-19843.0,32.52429896939229,26094.0,27.994300397653195,-18901.0,3868.131868131868,2640.0,9.282840946392271,1.5219912E7,-24.309580869972706,22696.0,65.86615327803884,0.0,100.0,1.79096000028E12,-1.0,1.7909600002734375E12,273.4375
6829004a5a4a25e8a75a0a87b45043456caea2dd67980db497fe0d75,10600.0,10600.0,323.486328125,10600.0,-79.20889973775552,23114.0,-248.5851326473265,9546.0,270.8426085666532,-22552.0,739.2808153573421,27822.0,-861.527993104134,-23843.0,-843.5935797049519,26520.0,-2.491730672574106,-19443.0,30.996661108722982,-361.0,-41.86010016673831,29965.0,3882.7838827838827,2650.0,117.61936936057752,5260101.0,36.3320759665221,34740.0,68.58689096546732,0.0,100.0,1.7909600003E12,-1.0,1.7909600002929688E12,292.96875
e82b00b26e14577bf9640a2f6016652d3fb79aaad52575dece6d6ee1,11240.0,11240.0,343.017578125,11240.0,-234.10274797503274,28338.0,-316.1356928035873,22292.0,39.00720251256747,-1669.0,799.7317701197483,16311.0,-485.5664539762803,-25942.0,323.340468113874,-10971.0,43.74127391643954,-8587.0,14.631518345233461,28110.0,11.636088407499859,-7826.0,3897.435897435897,2660.0,132.560860954386,1467693.0,-78.2150390446186,12128.0,71.1560290469788,0.0,100.0,1.79096000032E12,-1.0,1.7909600003125E12,312.5
682e006bd36c6cd3186e0a0d4b75fa6abd94919cc4db8a484ce7f4cb,11880.0,11880.0,362.548828125,11880.0,-299.88202252525866,-11413.0,154.11916717853705,27756.0,-40.085463097843345,6355.0,860.3543205183247,-17004.0,537.0434808070781,-28260.0,483.15895960544856,-15141.0,-8.64901167294434,18570.0,-29.73645942189683,-6324.0,18.159334788771663,-13324.0,3912.0879120879117,2670.0,70.31708023273653,7731818.0,-123.20959620748181,3403.0,73.57547204964794,0.0,100.0,1.79096000034E12,-1.0,1.7909600003320312E12,332.03125
e830000eaf938b978c780a422dda236267f189d66148a78feb822950,12520.0,12520.0,382.080078125,12520.0,379.65071476609455,-20722.0,282.4574551355085,-29805.0,354.5748641772714,-29545.0,934.9886844452462,26609.0,-821.4555176551152,-30250.0,-792.5638029600414,24904.0,-50.89401886327905,-28761.0,44.8653644109535,-32021.0,-27.95261049624282,20521.0,3926.7399267399264,2680.0,17.60289864971606,1.4295906E7,-53.58418167766649,16941.0,75.84835200116504,0.0,100.0,1.79096000036E12,-1.0,1.7909600003515625E12,351.5625
683300310fbb245fba820a16287d7f7ddaf798e52eee8bd8ba987bee,13160.0,13160.0,401.611328125,13160.0,-79.01903786943284,3889.0,-20.60470567501629,9403.0,222.87809626519402,-17825.0,805.7682705367853,-9481.0,289.54727746432246,-26395.0,-361.3000785660257,12014.0,-40.578324905787674,-10101.0,15.324613267228823,-26438.0,6.884024112302579,-4485.0,3941.391941391941,2690.0,67.48319825495335,8224637.0,-111.46579963713884,5672.0,77.97902842913754,0.0,100.0,1.79096000038E12,-1.0,1.7909600003710938E12,371.09375
e83500849afaf1070f8c0a1b5c33ec47a4d9db687e55d92f1a14aaa9,13800.0,13800.0,421.142578125,13800.0,64.44419881009817,-25980.0,334.8680346865948,-3590.0,-12.247081294369085,3847.0,280.48436961684445,-23335.0,695.6837715687616,-9368.0,-975.3196614162055,32341.0,9.45312154556663,12249.0,-19.288903131723135,5146.0,31.012761477476875,-22102.0,3956.043956043956,2700.0,109.89995686479243,3402823.0,-104.58564874716103,7004.0,79.97308836306911,0.0,100.0,1.7909600004E12,-1.0,1.790960000390625E12,390.625
683800004c11426fd4960a737ccdf918b318804be2275a3c3bda5548,14440.0,14440.0,440.673828125,14440.0,-168.4584487295623,19456.0,-208.18033113474362,16913.0,145.8876445312674,-11153.0,995.2480520028286,-19688.0,615.8973971745296,-32693.0,254.4323770675812,-7641.0,-15.688271531419282,15450.0,-24.905627990437132,-9669.0,-27.182883125427395,18517.0,3970.6959706959706,2710.0,27.108321882317906,1.3498648E7,10.374326286837459,29564.0,81.83734633214772,0.0,100.0,1.79096000042E12,-1.0,1.7909600004101562E12,410.15625
e83a00f1f2615fd60aa00a8685d475620df97eac35ad7c5adc90779f,15080.0,15080.0,460.205078125,15080.0,-260.0166559615297,-3343.0,59.4030964702312,24417.0,-2.5895492887578566,2774.0,-990.5236915180511,3577.0,-129.06363062203923,32428.0,-427.33864558758603,13741.0,-42.044922623681806,23164.0,-37.742625971911885,-28452.0,34.18914979227121,-24713.0,3985.3479853479853,2720.0,23.43410166817644,1.3923682E7,34.81682178180199,34437.0,83.57984436734114,0.0,100.0,1.79096000044E12,-1.0,1.7909600004296875E12,429.6875
683d009bde3269d093aa0af934d111273309fcdec82dab7b75bc2a13,15720.0,15720.0,479.736328125,15720.0,-278.74683882567587,-8549.0,124.32518551861315,26930.0,337.4517498764068,-27696.0,29.27234231866946,13065.0,-391.9012834876703,-802.0,428.5259541513354,-14291.0,-26.425159755104293,31659.0,-50.96817928071643,-17291.0,-8.520473949850063,4906.0,3999.9999999999995,2730.0,30.41027146355389,1.3701415E7,179.15373374335468,63796.0,85.20985199999996,0.0,100.0,1.79096000046E12,-1.0,1.7909600004492188E12,449.21875
e83f00f4f496305e01b40ab56509b48b747f45182d3404d9354488aa,16360.0,16360.0,499.267578125,16360.0,-120.3337267457163,-2828.0,56.36228023999908,12438.0,22.8861384278127,350.0,-531.2928280259957,29823.0,-926.2524496688634,17688.0,-384.8965587268192,11572.0,28.113326902259402,-9980.0,16.533562793923664,17461.0,31.77029259810342,-21880.0,4014.6520146520143,2740.0,184.56195007336268,636043.0,94.41837549756747,46437.0,86.73786626209039,0.0,100.0,1.79096000048E12,-1.0,1.79096000046875E12,468.75
684200dacf1b5fc863be0a9e5b3ca60cb3beed1269b6e9b6775768e2,17000.0,17000.0,518.798828125,17000.0,-266.8840425640207,-12326.0,163.48037667611814,24347.0,-253.4393298186152,25544.0,143.2294624594427,-19522.0,580.8892771212355,-4846.0,-816.1417008560051,27062.0,34.765498798624186,-18711.0,30.58992089384948,22391.0,11.757697626815483,-7576.0,4029.304029304029,2750.0,137.73794307064597,3974668.0,65.22895535628777,40539.0,88.17561168642715,0.0,100.0,1.7909600005E12,-1.0,1.7909600004882812E12,488.28125
e8440066a444ca7012c80a3271c986a755a73ea83fe5688ba5fc0211,17640.0,17640.0,538.330078125,17640.0,181.97459092112493,-23450.0,307.0615575403597,-13756.0,-23.678514758404056,4720.0,-483.26460419931595,21927.0,-687.1072145707542,16040.0,-525.0434111475396,16357.0,-1.9290127020567207,-29848.0,47.59774974077436,-859.0,-4.7749246506339125,4354.0,4043.9560439560437,2760.0,26.88050239972179,1.3207207E7,-74.18854517035652,12913.0,89.5360403067898,0.0,100.0,1.79096000052E12,-1.0,1.7909600005078125E12,507.8125
68470052e3fd0e0b4bd20a5d2951e9e154cda0336815189673555abb,18280.0,18280.0,557.861328125,18280.0,-27.01159715119443,-7342.0,109.77441002905292,3837.0,-186.5455069390181,19211.0,758.2656373351706,21709.0,-674.3587022424852,-24525.0,-841.7162488346656,26645.0,34.42783970117006,-27112.0,43.97748142247287,21875.0,26.442181585531326,-17574.0,4058.6080586080584,2770.0,106.84957195955212,5368289.0,-18.467668064986356,23849.0,90.83333165710792,0.0,100.0,1.79096000054E12,-1.0,1.7909600005273438E12,527.34375
e849001eb5cbbd79abdc0accdde177aa4c39f18c3f01b04c4479883a,18920.0,18920.0,577.392578125,18920.0,227.92198537485191,-19170.0,260.07245848088945,-16949.0,267.800007093647,-21639.0,120.1509058183273,19513.0,-607.0608881356129,-3700.0,-515.5663428702441,16129.0,47.348589819468415,19632.0,-30.28689102409249,31044.0,-22.2971781592942,14984.0,4073.260073260073,2780.0,15.638821424523037,1.4776234E7,123.94400637585204,52445.0,92.08289277390577,0.0,100.0,1.79096000056E12,-1.0,1.790960000546875E12,546.875
684c0095ece9289598e60a668d38cfcbee7b743faa00cad413ebbca0,19560.0,19560.0,596.923828125,19560.0,-88.41626591731094,-4971.0,85.48682836277456,10473.0,321.2050103375397,-26475.0,-911.5505603720952,-4485.0,140.47517380711582,29759.0,682.8978849149283,-22016.0,-6.939413372589279,-11062.0,17.54332829851859,-5357.0,35.38344270609841,-24388.0,4087.912087912088,2790.0,125.90532007727745,3723211.0,-6.312191967037506,26253.0,93.30135819187853,0.0,100.0,1.79096000058E12,-1.0,1.7909600005664062E12,566.40625
e84e00b7649d6767a8f00a82ec12276cd78031f9c46efc6861d53532,20200.0,20200.0,616.455078125,20200.0,-276.0944785329767,25783.0,-284.2813683809455,26525.0,270.686428528822,-22425.0,-394.0647254555325,-10368.0,321.4987291886191,12793.0,479.919892495117,-15250.0,-17.11448986532772,26876.0,-43.15220897684343,-10911.0,-19.638851983591017,12853.0,4102.5641025641025,2800.0,161.37211169396815,1189740.0,30.207768274471164,33516.0,94.50658994843252,0.0,100.0,1.7909600006E12,-1.0,1.7909600005859375E12,585.9375
6851001d010d42b632fa0aaf00290f54c7ced31ab8540133a9650bc4,20840.0,20840.0,635.986328125,20840.0,-176.48104239498232,285.0,16.814476088917395,16909.0,-117.69890005427183,12982.0,348.00278852672915,-14386.0,453.78454191442097,-11494.0,579.4458849439283,-18348.0,41.26733702524187,13057.0,-19.92789873417874,26025.0,21.34644875226035,-15349.0,4117.216117216117,2810.0,157.5052434718083,2690900.0,86.33710262179375,44800.0,95.71767758100759,0.0,100.0,1.79096000062E12,-1.0,1.7909600006054688E12,605.46875
e85300f7c5c0b491e8040b057b3ffcebed7807824250bfad6faf096f,21480.0,21480.0,655.517578125,21480.0,249.4071757979952,-14857.0,207.48466401842688,-19264.0,92.75562152238858,-5999.0,-59.4077132372425,-4744.0,132.87876200215808,1922.0,-519.018593732187,16976.0,-33.66996363438439,-21057.0,32.9337124768493,-20625.0,-39.60198862569452,28425.0,4131.868131868132,2820.0,98.1621113162117,4193515.0,-133.58596252847929,1403.0,96.95493812835775,0.0,100.0,1.79096000064E12,-1.0,1.790960000625E12,625.0
685600fd005811adcb0e0b9fd8a9b7ff23b35a71abc09d15c46757e8,22120.0,22120.0,675.048828125,22120.0,-22.96745289124758,253.0,23.242207748987507,4440.0,173.97229646167,-13395.0,-705.1537501109283,9139.0,-274.6272238665987,23153.0,656.3838774441815,-21568.0,41.45554834548434,5533.0,-7.927884217439097,26564.0,8.432163473476827,-6057.0,4146.520146520146,2830.0,55.928978462020275,1.1122687E7,67.12065600603819,40920.0,98.23991612868849,0.0,100.0,1.79096000066E12,-1.0,1.7909600006445312E12,644.53125
e85800824948ce539b180b990782b67b175172f722571e090460c794,22760.0,22760.0,694.580078125,22760.0,180.12118849225598,18818.0,-191.9476966852591,-12728.0,305.17094529248334,-25773.0,-898.0889944950106,5969.0,-198.2804540848614,29431.0,-276.90481250015387,8791.0,39.585694050946934,2334.0,-2.8655980805929206,24580.0,39.14403205758221,-27449.0,4161.1721611721605,2840.0,84.0028312248767,8566395.0,58.44964049279224,39175.0,99.59538362326566,0.0,100.0,1.79096000068E12,-1.0,1.7909600006640625E12,664.0625
685b00bd6e9c2f6ef6220ba253aeda98ce25abcc154542ccd9133fad,23400.0,23400.0,714.111328125,23400.0,-116.71020954928788,28349.0,-313.8185807327202,12188.0,46.55739714750514,-2450.0,656.610454614856,-12763.0,392.53469009895315,-21556.0,-155.6991627267399,5445.0,8.938722839913412,-13246.0,21.349514751834974,5081.0,30.921914013983617,-21185.0,4175.824175824176,2850.0,52.34002324012046,1.1459224E7,70.27161275956314,41555.0,100.0,0.0,100.0,1.7909600007E12,-1.0,1.7909600006835938E12,683.59375
e85d0064e421f47aa22c0b830cf83eead427ce5fc7f44242a797a7b5,24040.0,24040.0,733.642578125,24040.0,67.37051849643804,-7068.0,113.2594094909654,-3039.0,292.0581496715216,-23942.0,386.0685357435835,-11225.0,354.97253714281777,-12705.0,453.14610608867054,-14348.0,-39.77930074575011,16962.0,-27.807995933586746,-26713.0,26.37290297913525,-19033.0,4190.47619047619,2860.0,-1.4075000273724712,1.6269034E7,30.367991907522082,33548.0,100.0,0.0,100.0,1.79096000072E12,-1.0,1.790960000703125E12,703.125
68600031bda602336d360bf282fed2dc3ae60cdf08bbe252388b5d0a,24680.0,24680.0,753.173828125,24680.0,6.705111613942597,-17103.0,225.48940403442543,678.0,-281.7239297021176,27955.0,-95.39547869618433,15078.0,-464.93851816866214,3295.0,-83.02021801468612,2235.0,-45.87822234422139,21218.0,-34.71817800702493,-29896.0,-4.814402483067891,2653.0,4205.128205128205,2870.0,-8.304224477829072,1.6700124E7,170.86514295218512,62082.0,100.0,0.0,100.0,1.79096000074E12,-1.0,1.7909600007226562E12,722.65625
e8620083558b933240400b1773b74957147583b7ca3d7d4efd354a2d,25320.0,25320.0,772.705078125,25320.0,340.0550568915619,21891.0,-229.99571028597748,-27765.0,-166.15602033019073,16434.0,976.1022917807414,5237.0,-143.2177953842938,-31817.0,419.8664243444789,-13763.0,20.99531582178234,20093.0,-31.55972569751465,13821.0,-17.492506056639723,11594.0,4219.780219780219,2880.0,35.657300346809166,1.2011863E7,-109.75512817141134,6003.0,100.0,0.0,100.0,1.79096000076E12,-1.0,1.7909600007421875E12,742.1875
6865009481c61a91ad4a0bfa9fc36118111f0386eaf5b65af80442c7,25960.0,25960.0,792.236328125,25960.0,-48.09206626860712,-32364.0,411.2861321811363,6854.0,267.62886552853104,-21103.0,-25.50810114078135,4383.0,-132.27374463840445,902.0,162.0637605461903,-5387.0,3.1982358203858583,23222.0,-36.91177069754316,1272.0,19.661218307645132,-14526.0,4234.4322344322345,2890.0,42.210465367266664,1.2804376E7,180.90694112412166,64159.0,100.0,0.0,100.0,1.79096000078E12,-1.0,1.7909600007617188E12,761.71875
