expansion,300402
config,800201e02000019bee08008010000000000002010080100000000000020109000000ffffffffffffffffffffffffffffffffffffffffffffffffffffffffffffffffffffffffffffffffffffffffffffffffffffffffffffffffffffffffffffff000000000000068706870687009c0064000000009c0000000000000000000000000000000000000000000000000000000000000000000000000000000000000000000000000000000000000000000000000000000000000000005368696d6d65725f3345333644656661756c74547269616c6aacfc19000131000000010000e8eb1b713e360100000000000000000000000000000000000000000000000000ffffffffffffffffffffffffffffffffffffffffffffffffffffffffffffffffffffffffffffffffffffffffffffffffffffffffffffffffffffffffffffffffffffffffffffffffffffffffffffffffffffffffffffffffffffffffffffffffffffffffffffffffffffffffffffffffffffffffffffffffffffffffffff0000
dump,
inquiry,8002019bee080c01000102031a1b0a0b0c070809
packet,Clock 3_LSB|CAL|Ticks,Clock 3_LSB|UNCAL|Ticks,Timestamp|CAL|ms,Timestamp|UNCAL|Ticks,Accel_LN_X|CAL|m/(s^2),Accel_LN_X|UNCAL|no_units,Accel_LN_Y|CAL|m/(s^2),Accel_LN_Y|UNCAL|no_units,Accel_LN_Z|CAL|m/(s^2),Accel_LN_Z|UNCAL|no_units,Gyro_X|CAL|deg/s,Gyro_X|UNCAL|no_units,Gyro_Y|CAL|deg/s,Gyro_Y|UNCAL|no_units,Gyro_Z|CAL|deg/s,Gyro_Z|UNCAL|no_units,Mag_X|CAL|local_flux,Mag_X|UNCAL|no_units,Mag_Y|CAL|local_flux,Mag_Y|UNCAL|no_units,Mag_Z|CAL|local_flux,Mag_Z|UNCAL|no_units,Battery|CAL|mV,Battery|UNCAL|no_units,Pressure_BMP280|CAL|kPa,Pressure_BMP280|UNCAL|no_units,Temperature_BMP280|CAL|Degrees Celsius,Temperature_BMP280|UNCAL|no_units,Batt_Percentage|CAL|%,Packet_Reception_Rate_Current|CAL|%,Packet_Reception_Rate_Trial|CAL|%,System_Timestamp|CAL|ms,Event_Marker|CAL|no_units,System_Timestamp_Plot|CAL|ms,System_Timestamp_Plot_Zeroed|CAL|ms
e803007c316bddb375c409af7d87b908942234bee86b47baa2cf9fac,1000.0,1000.0,30.517578125,1000.0,120.71739130434783,12668.0,-113.20652173913044,-8853.0,-303.02173913043475,30131.0,-411.6463414634147,-27614.0,841.8902439024391,13502.0,184.0548780487805,-6037.0,-18.563718140929534,-17849.0,26.760119940029984,-12382.0,32.00149925037481,-21345.0,3663.003663003663,2500.0,83.59048366803641,8894728.0,86.95473216462415,44925.0,13.71278402977623,0.0,100.0,1.79096E12,-1.0,1.79096E12,0.0
680600d46cf2c3cde0ce092b9d199c963e3270343ba9444acb8364ed,1640.0,1640.0,50.048828125,1640.0,191.59782608695653,27860.0,-278.3369565217391,-15374.0,111.30434782608695,-7987.0,-875.7317073170733,15922.0,-485.42682926829275,28724.0,-465.64024390243907,15273.0,-47.67166416791604,19012.0,-28.50374812593703,-31797.0,7.142428785607196,-4764.0,3677.655677655677,2510.0,129.54474204009767,1678486.0,-83.15944593411405,11165.0,18.068491051439196,0.0,100.0,1.79096000002E12,-1.0,1.7909600000195312E12,19.53125
e8080079abd12b1858d80969777061e46ae3b18c0b1e65f2d2345943,2280.0,2280.0,69.580078125,2280.0,-97.43478260869566,-21639.0,259.69565217391306,11217.0,-220.6413043478261,22552.0,612.3170731707318,27363.0,-834.2378048780489,-20084.0,-86.76829268292684,2846.0,20.272863568215893,-3483.0,5.221889055472264,13522.0,-25.848575712143926,17241.0,3692.307692307692,2520.0,88.99942357871208,7365092.0,-2.546990656410344,26999.0,22.374822677578777,0.0,100.0,1.79096000004E12,-1.0,1.7909600000390625E12,39.0625
680b00526091ff4e0ce20958fc25f41b742f3f8e0505a9a73b1daec9,2920.0,2920.0,89.111328125,2920.0,25.695652173913043,24658.0,-243.53260869565216,-111.0,-9.75,3150.0,-496.0365853658537,29743.0,-906.798780487805,16270.0,-39.176829268292686,1285.0,11.218890554722638,-22615.0,33.90554722638681,7483.0,20.848575712143926,-13906.0,3706.9597069597066,2530.0,134.81323131081882,2487323.0,-23.883716167882085,22780.0,26.616498422808945,0.0,100.0,1.79096000006E12,-1.0,1.7909600000585938E12,58.59375
e80d00952c63dac0b4ec0918f18c961bfdd53e95e7a418d78cea1714,3560.0,3560.0,108.642578125,3560.0,129.15217391304347,11413.0,-99.56521739130434,-9629.0,233.8804347826087,-19264.0,-488.44512195121956,-555.0,16.920731707317074,16021.0,190.12195121951223,-6236.0,-8.233883058470765,-10472.0,15.700149925037481,-5492.0,-7.710644677661169,5143.0,3721.6117216117214,2540.0,59.46028337198912,9213467.0,-107.7816716163652,6385.0,30.779465304338373,0.0,100.0,1.79096000008E12,-1.0,1.790960000078125E12,78.125
6810004a895119d479f609d29de45d46b7a958cc2778fd95e4ee8f6e,4200.0,4200.0,128.173828125,4200.0,-45.95652173913043,-30390.0,354.8152173913043,6481.0,-314.5108695652174,31188.0,-693.048780487805,-18519.0,564.6036585365854,22732.0,-308.0487804878049,10104.0,-6.56671664167916,-27139.0,40.68815592203898,-4380.0,-42.433283358320836,28303.0,3736.263736263736,2550.0,13.421969628706659,1.4966086E7,131.145937569323,53917.0,34.85089783894364,0.0,100.0,1.7909600001E12,-1.0,1.7909600000976562E12,97.65625
e812009f4a43ec4f0d000a1b402de0a415090650d0df56d4210da2f4,4840.0,4840.0,147.705078125,4840.0,79.41304347826086,19103.0,-183.15217391304347,-5053.0,-12.543478260869565,3407.0,-49.268292682926834,5385.0,-164.1768292682927,1616.0,367.8353658536586,-12065.0,5.0389805097451275,-11178.0,16.75862068965517,3361.0,4.362818590704648,-2910.0,3750.915750915751,2560.0,113.32302539397504,3006628.0,-104.73017027974129,6976.0,38.819198044831865,0.0,100.0,1.79096000012E12,-1.0,1.7909600001171875E12,117.1875
681500d176ca47e1c30a0ada27c2b99ec1f2465d6e8436afa602cb9a,5480.0,5480.0,167.236328125,5480.0,-175.27173913043478,30417.0,-306.1304347826087,18378.0,191.78260869565216,-15391.0,-549.1768292682927,-15886.0,484.32926829268297,18013.0,-862.5609756097562,28292.0,1.0164917541229386,-20682.0,31.007496251874063,678.0,38.84407796101949,-25909.0,3765.5677655677655,2570.0,40.940081419111955,1.2761502E7,140.56957786052953,55847.0,42.673995440942235,0.0,100.0,1.79096000014E12,-1.0,1.7909600001367188E12,136.71875
e81700d0973d35dd05140abff302a8cc4c7781324ff9456aff4d33fe,6120.0,6120.0,186.767578125,6120.0,-123.65217391304347,-26672.0,314.40217391304344,13629.0,8.17391304347826,1501.0,989.6951219512196,19575.0,-596.798780487805,-32462.0,-624.1768292682927,20473.0,29.93553223388306,27205.0,-40.78710644677661,19967.0,0.6911544227886057,-461.0,3780.2197802197798,2580.0,193.88098627559305,174284.0,107.72304427984636,49139.0,46.40614704671316,0.0,100.0,1.79096000016E12,-1.0,1.79096000015625E12,156.25
681a0049cda9cc46841e0ae6ceec50b49a04d1299d7aeef8104bd85d,6760.0,6760.0,206.298828125,6760.0,167.34782608695653,-12983.0,165.6086956521739,-13143.0,368.77173913043475,-31674.0,365.57926829268297,-26108.0,795.9756097560976,-11991.0,768.9634146341464,-25222.0,28.8095952023988,-1810.0,2.7136431784107944,19216.0,-36.01799100449775,24024.0,3794.8717948717945,2590.0,7.140776237557374,1.5487156E7,156.335965547245,59086.0,50.0077373823151,0.0,100.0,1.79096000018E12,-1.0,1.7909600001757812E12,175.78125
e81c00ad6595545406280abc68bbebbbe48d1deaf7e45cb95f7e728c,7400.0,7400.0,225.830078125,7400.0,-210.8695652173913,26029.0,-258.4347826086956,21653.0,6.880434782608695,1620.0,-233.47560975609758,-7027.0,214.2378048780488,7658.0,63.29268292682927,-2076.0,48.502248875562216,-18084.0,27.112443778110944,32351.0,44.35082458770614,-29582.0,3809.523809523809,2600.0,44.464547410557756,1.2315579E7,103.26170759648085,48232.0,53.472078468999825,0.0,100.0,1.7909600002E12,-1.0,1.7909600001953125E12,195.3125
681f00a086cd4d5935320ae08d06ce00af3c5bdec8f7b4df188b2702,8040.0,8040.0,245.361328125,8040.0,-192.0,-31072.0,362.2282608695652,19917.0,-123.95652173913044,13657.0,-717.0121951219513,-20676.0,630.3658536585366,23518.0,429.5426829268293,-14089.0,-44.869565217391305,-8268.0,12.395802098950524,-29928.0,-0.8260869565217391,551.0,3824.175824175824,2610.0,201.1202660489249,445952.0,148.5504559240071,57485.0,56.79370982898399,0.0,100.0,1.79096000022E12,-1.0,1.7909600002148438E12,214.84375
e82100938421aab2b33c0a914d1d0cd0259b3c89b46cefc7d92cb350,8680.0,8680.0,264.892578125,8680.0,263.4347826086956,-31597.0,367.9347826086956,-21983.0,236.81521739130434,-19534.0,-472.469512195122,9627.0,-293.50609756097566,15497.0,589.8780487804878,-19348.0,17.212893553223388,-14353.0,21.51874062968516,11481.0,-30.973013493253372,20659.0,3838.8278388278386,2620.0,157.88764795866115,1903824.0,48.59940088901203,37197.0,59.968398484401405,0.0,100.0,1.79096000024E12,-1.0,1.790960000234375E12,234.375
6824003cff25b17566460a2598f789cd6442b6d35023af9399b67e9c,9320.0,9320.0,284.423828125,9320.0,243.91304347826087,-196.0,26.619565217391305,-20187.0,-260.6086956521739,26229.0,571.1280487804878,25666.0,-782.5000000000001,-18733.0,-625.4573170731708,20515.0,-28.17241379310345,-27729.0,41.57271364317841,-18791.0,38.19190404797601,-25474.0,3853.4798534798533,2630.0,0.3117620159992931,1.6222669E7,-91.08275402337313,9624.0,62.99313895928208,0.0,100.0,1.79096000026E12,-1.0,1.7909600002539062E12,253.90625
e82600fe16cfd73a9a500a58a8e83cc82c8365f07d8a7db2ee652bb6,9960.0,9960.0,303.955078125,9960.0,136.32608695652175,5886.0,-39.48913043478261,-10289.0,307.6847826086956,-26054.0,-795.6097560975611,11395.0,-347.4085365853659,26096.0,-979.8170731707318,32138.0,39.121439280359816,-19843.0,29.749625187406295,26094.0,28.337331334332834,-18901.0,3868.131868131868,2640.0,9.282840946392271,1.5219912E7,-24.309580869972706,22696.0,65.86615327803884,0.0,100.0,1.79096000028E12,-1.0,1.7909600002734375E12,273.4375
6829004a5a4a25e8a75a0a87b45043456caea2dd67980db497fe0d75,10600.0,10600.0,323.486328125,10600.0,-79.27173913043478,23114.0,-226.75,9546.0,269.6195652173913,-22552.0,726.9207317073171,27822.0,-848.2317073170733,-23843.0,-808.5365853658537,26520.0,-0.5412293853073463,-19443.0,29.149925037481257,-361.0,-44.925037481259366,29965.0,3882.7838827838827,2650.0,117.61936936057752,5260101.0,36.3320759665221,34740.0,68.58689096546732,0.0,100.0,1.7909600003E12,-1.0,1.7909600002929688E12,292.96875
e82b00b26e14577bf9640a2f6016652d3fb79aaad52575dece6d6ee1,11240.0,11240.0,343.017578125,11240.0,-217.81521739130434,28338.0,-283.5326086956522,22292.0,42.630434782608695,-1669.0,790.9146341463415,16311.0,-497.2865853658537,-25942.0,334.4817073170732,-10971.0,42.14392803598201,-8587.0,12.87406296851574,28110.0,11.733133433283358,-7826.0,3897.435897435897,2660.0,132.560860954386,1467693.0,-78.2150390446186,12128.0,71.1560290469788,0.0,100.0,1.79096000032E12,-1.0,1.7909600003125E12,312.5
682e006bd36c6cd3186e0a0d4b75fa6abd94919cc4db8a484ce7f4cb,11880.0,11880.0,362.548828125,11880.0,-277.20652173913044,-11413.0,148.54347826086956,27756.0,-44.58695652173913,6355.0,861.5853658536586,-17004.0,518.4146341463415,-28260.0,461.61585365853665,-15141.0,-9.481259370314842,18570.0,-27.841079460269864,-6324.0,19.976011994003,-13324.0,3912.0879120879117,2670.0,70.31708023273653,7731818.0,-123.20959620748181,3403.0,73.57547204964794,0.0,100.0,1.79096000034E12,-1.0,1.7909600003320312E12,332.03125
e830000eaf938b978c780a422dda236267f189d66148a78feb822950,12520.0,12520.0,382.080078125,12520.0,348.45652173913044,-20722.0,249.72826086956522,-29805.0,345.6304347826087,-29545.0,922.2560975609757,26609.0,-811.2500000000001,-30250.0,-759.2682926829269,24904.0,-48.00749625187406,-28761.0,43.119940029985,-32021.0,-30.766116941529233,20521.0,3926.7399267399264,2680.0,17.60289864971606,1.4295906E7,-53.58418167766649,16941.0,75.84835200116504,0.0,100.0,1.79096000036E12,-1.0,1.7909600003515625E12,351.5625
683300310fbb245fba820a16287d7f7ddaf798e52eee8bd8ba987bee,13160.0,13160.0,401.611328125,13160.0,-77.71739130434783,3889.0,-17.782608695652172,9403.0,218.2391304347826,-17825.0,804.7256097560976,-9481.0,289.0548780487805,-26395.0,-366.2804878048781,12014.0,-39.63718140929535,-10101.0,15.14392803598201,-26438.0,6.724137931034482,-4485.0,3941.391941391941,2690.0,67.48319825495335,8224637.0,-111.46579963713884,5672.0,77.97902842913754,0.0,100.0,1.79096000038E12,-1.0,1.7909600003710938E12,371.09375
e83500849afaf1070f8c0a1b5c33ec47a4d9db687e55d92f1a14aaa9,13800.0,13800.0,421.142578125,13800.0,63.51086956521739,-25980.0,306.8804347826087,-3590.0,-17.32608695652174,3847.0,285.609756097561,-23335.0,711.4329268292684,-9368.0,-986.0060975609757,32341.0,7.715142428785607,12249.0,-18.36431784107946,5146.0,33.13643178410795,-22102.0,3956.043956043956,2700.0,109.89995686479243,3402823.0,-104.58564874716103,7004.0,79.97308836306911,0.0,100.0,1.7909600004E12,-1.0,1.790960000390625E12,390.625
683800004c11426fd4960a737ccdf918b318804be2275a3c3bda5548,14440.0,14440.0,440.673828125,14440.0,-159.34782608695653,19456.0,-186.9891304347826,16913.0,145.7173913043478,-11153.0,996.7378048780489,-19688.0,600.2439024390244,-32693.0,232.95731707317074,-7641.0,-14.496251874062969,15450.0,-23.163418290854572,-9669.0,-27.761619190404797,18517.0,3970.6959706959706,2710.0,27.108321882317906,1.3498648E7,10.374326286837459,29564.0,81.83734633214772,0.0,100.0,1.79096000042E12,-1.0,1.7909600004101562E12,410.15625
e83a00f1f2615fd60aa00a8685d475620df97eac35ad7c5adc90779f,15080.0,15080.0,460.205078125,15080.0,-240.91304347826087,-3343.0,60.826086956521735,24417.0,-5.663043478260869,2774.0,-988.6585365853659,3577.0,-109.0548780487805,32428.0,-418.93292682926835,13741.0,-42.656671664167916,23164.0,-34.72863568215892,-28452.0,37.05097451274363,-24713.0,3985.3479853479853,2720.0,23.43410166817644,1.3923682E7,34.81682178180199,34437.0,83.57984436734114,0.0,100.0,1.79096000044E12,-1.0,1.7909600004296875E12,429.6875
683d009bde3269d093aa0af934d111273309fcdec82dab7b75bc2a13,15720.0,15720.0,479.736328125,15720.0,-268.2282608695652,-8549.0,117.41304347826086,26930.0,325.5326086956522,-27696.0,24.451219512195124,13065.0,-398.32317073170736,-802.0,435.70121951219517,-14291.0,-25.923538230884557,31659.0,-47.4647676161919,-17291.0,-7.355322338830584,4906.0,3999.9999999999995,2730.0,30.41027146355389,1.3701415E7,179.15373374335468,63796.0,85.20985199999996,0.0,100.0,1.79096000046E12,-1.0,1.7909600004492188E12,449.21875
e83f00f4f496305e01b40ab56509b48b747f45182d3404d9354488aa,16360.0,16360.0,499.267578125,16360.0,-110.70652173913044,-2828.0,55.22826086956522,12438.0,20.684782608695652,350.0,-539.2682926829269,29823.0,-909.2378048780489,17688.0,-352.8048780487805,11572.0,26.178410794602698,-9980.0,14.962518740629685,17461.0,32.80359820089955,-21880.0,4014.6520146520143,2740.0,184.56195007336268,636043.0,94.41837549756747,46437.0,86.73786626209039,0.0,100.0,1.79096000048E12,-1.0,1.79096000046875E12,468.75
684200dacf1b5fc863be0a9e5b3ca60cb3beed1269b6e9b6775768e2,17000.0,17000.0,518.798828125,17000.0,-240.15217391304347,-12326.0,158.4673913043478,24347.0,-253.16304347826087,25544.0,147.7439024390244,-19522.0,595.1829268292684,-4846.0,-825.0609756097562,27062.0,33.569715142428784,-18711.0,28.05247376311844,22391.0,11.358320839580209,-7576.0,4029.304029304029,2750.0,137.73794307064597,3974668.0,65.22895535628777,40539.0,88.17561168642715,0.0,100.0,1.7909600005E12,-1.0,1.7909600004882812E12,488.28125
e8440066a444ca7012c80a3271c986a755a73ea83fe5688ba5fc0211,17640.0,17640.0,538.330078125,17640.0,174.01086956521738,-23450.0,279.3804347826087,-13756.0,-26.815217391304348,4720.0,-489.0243902439025,21927.0,-668.5060975609757,16040.0,-498.68902439024396,16357.0,-1.287856071964018,-29848.0,44.749625187406295,-859.0,-6.527736131934033,4354.0,4043.9560439560437,2760.0,26.88050239972179,1.3207207E7,-74.18854517035652,12913.0,89.5360403067898,0.0,100.0,1.79096000052E12,-1.0,1.7909600005078125E12,507.8125
68470052e3fd0e0b4bd20a5d2951e9e154cda0336815189673555abb,18280.0,18280.0,557.861328125,18280.0,-17.217391304347824,-7342.0,104.29347826086956,3837.0,-184.32608695652172,19211.0,747.7134146341464,21709.0,-661.859756097561,-24525.0,-812.3475609756098,26645.0,32.796101949025484,-27112.0,40.64767616191904,21875.0,26.34782608695652,-17574.0,4058.6080586080584,2770.0,106.84957195955212,5368289.0,-18.467668064986356,23849.0,90.83333165710792,0.0,100.0,1.79096000054E12,-1.0,1.7909600005273438E12,527.34375
e849001eb5cbbd79abdc0accdde177aa4c39f18c3f01b04c4479883a,18920.0,18920.0,577.392578125,18920.0,208.7173913043478,-19170.0,232.8586956521739,-16949.0,259.69565217391306,-21639.0,112.8048780487805,19513.0,-594.9085365853659,-3700.0,-491.73780487804885,16129.0,46.54272863568216,19632.0,-29.43328335832084,31044.0,-22.464767616191903,14984.0,4073.260073260073,2780.0,15.638821424523037,1.4776234E7,123.94400637585204,52445.0,92.08289277390577,0.0,100.0,1.79096000056E12,-1.0,1.790960000546875E12,546.875
684c0095ece9289598e60a668d38cfcbee7b743faa00cad413ebbca0,19560.0,19560.0,596.923828125,19560.0,-89.34782608695652,-4971.0,78.52173913043478,10473.0,312.2608695652174,-26475.0,-907.2865853658537,-4485.0,136.7378048780488,29759.0,671.219512195122,-22016.0,-8.031484257871064,-11062.0,16.584707646176913,-5357.0,36.56371814092953,-24388.0,4087.912087912088,2790.0,125.90532007727745,3723211.0,-6.312191967037506,26253.0,93.30135819187853,0.0,100.0,1.79096000058E12,-1.0,1.7909600005664062E12,566.40625
e84e00b7649d6767a8f00a82ec12276cd78031f9c46efc6861d53532,20200.0,20200.0,616.455078125,20200.0,-263.82608695652175,25783.0,-255.76086956521738,26525.0,268.2391304347826,-22425.0,-390.0304878048781,-10368.0,316.0975609756098,12793.0,464.93902439024396,-15250.0,-16.35832083958021,26876.0,-40.29385307346327,-10911.0,-19.269865067466267,12853.0,4102.5641025641025,2800.0,161.37211169396815,1189740.0,30.207768274471164,33516.0,94.50658994843252,0.0,100.0,1.7909600006E12,-1.0,1.7909600005859375E12,585.9375
6851001d010d42b632fa0aaf00290f54c7ced31ab8540133a9650bc4,20840.0,20840.0,635.986328125,20840.0,-159.30434782608694,285.0,21.391304347826086,16909.0,-116.6195652173913,12982.0,350.4268292682927,-14386.0,438.5975609756098,-11494.0,559.3902439024391,-18348.0,39.01799100449775,13057.0,-19.575712143928037,26025.0,23.0119940029985,-15349.0,4117.216117216117,2810.0,157.5052434718083,2690900.0,86.33710262179375,44800.0,95.71767758100759,0.0,100.0,1.79096000062E12,-1.0,1.7909600006054688E12,605.46875
e85300f7c5c0b491e8040b057b3ffcebed7807824250bfad6faf096f,21480.0,21480.0,655.517578125,21480.0,233.8804347826087,-14857.0,185.97826086956522,-19264.0,89.69565217391305,-5999.0,-58.59756097560976,-4744.0,144.63414634146343,1922.0,-517.5609756097562,16976.0,-30.922038980509743,-21057.0,31.569715142428784,-20625.0,-42.61619190404797,28425.0,4131.868131868132,2820.0,98.1621113162117,4193515.0,-133.58596252847929,1403.0,96.95493812835775,0.0,100.0,1.79096000064E12,-1.0,1.790960000625E12,625.0
685600fd005811adcb0e0b9fd8a9b7ff23b35a71abc09d15c46757e8,22120.0,22120.0,675.048828125,22120.0,-23.77173913043478,253.0,21.73913043478261,4440.0,170.08695652173913,-13395.0,-705.8841463414635,9139.0,-278.6280487804878,23153.0,657.5609756097562,-21568.0,39.826086956521735,5533.0,-8.295352323838081,26564.0,9.08095952023988,-6057.0,4146.520146520146,2830.0,55.928978462020275,1.1122687E7,67.12065600603819,40920.0,98.23991612868849,0.0,100.0,1.79096000066E12,-1.0,1.7909600006445312E12,644.53125
e85800824948ce539b180b990782b67b175172f722571e090460c794,22760.0,22760.0,694.580078125,22760.0,162.83695652173913,18818.0,-180.05434782608694,-12728.0,304.6304347826087,-25773.0,-897.2865853658537,5969.0,-181.9817073170732,29431.0,-268.01829268292687,8791.0,36.85157421289355,2334.0,-3.4992503748125934,24580.0,41.15292353823088,-27449.0,4161.1721611721605,2840.0,84.0028312248767,8566395.0,58.44964049279224,39175.0,99.59538362326566,0.0,100.0,1.79096000068E12,-1.0,1.7909600006640625E12,664.0625
685b00bd6e9c2f6ef6220ba253aeda98ce25abcc154542ccd9133fad,23400.0,23400.0,714.111328125,23400.0,-107.98913043478261,28349.0,-283.6521739130435,12188.0,51.119565217391305,-2450.0,657.1951219512196,-12763.0,389.1158536585366,-21556.0,-166.00609756097563,5445.0,7.617691154422788,-13246.0,19.859070464767616,5081.0,31.761619190404797,-21185.0,4175.824175824176,2850.0,52.34002324012046,1.1459224E7,70.27161275956314,41555.0,100.0,0.0,100.0,1.7909600007E12,-1.0,1.7909600006835938E12,683.59375
e85d0064e421f47aa22c0b830cf83eead427ce5fc7f44242a797a7b5,24040.0,24040.0,733.642578125,24040.0,57.52173913043478,-7068.0,101.31521739130434,-3039.0,284.7282608695652,-23942.0,387.3475609756098,-11225.0,342.2256097560976,-12705.0,437.43902439024396,-14348.0,-40.049475262368816,16962.0,-25.430284857571213,-26713.0,28.535232383808093,-19033.0,4190.47619047619,2860.0,-1.4075000273724712,1.6269034E7,30.367991907522082,33548.0,100.0,0.0,100.0,1.79096000072E12,-1.0,1.790960000703125E12,703.125
68600031bda602336d360bf282fed2dc3ae60cdf08bbe252388b5d0a,24680.0,24680.0,753.173828125,24680.0,17.119565217391305,-17103.0,210.3913043478261,678.0,-279.3695652173913,27955.0,-100.45731707317074,15078.0,-459.69512195121956,3295.0,-68.14024390243902,2235.0,-44.8215892053973,21218.0,-31.811094452773613,-29896.0,-3.977511244377811,2653.0,4205.128205128205,2870.0,-8.304224477829072,1.6700124E7,170.86514295218512,62082.0,100.0,0.0,100.0,1.79096000074E12,-1.0,1.7909600007226562E12,722.65625
e8620083558b933240400b1773b74957147583b7ca3d7d4efd354a2d,25320.0,25320.0,772.705078125,25320.0,326.2826086956522,21891.0,-213.45652173913044,-27765.0,-154.1413043478261,16434.0,970.0304878048781,5237.0,-159.66463414634148,-31817.0,419.6036585365854,-13763.0,20.721139430284857,20093.0,-30.124437781109446,13821.0,-17.38230884557721,11594.0,4219.780219780219,2880.0,35.657300346809166,1.2011863E7,-109.75512817141134,6003.0,100.0,0.0,100.0,1.79096000076E12,-1.0,1.7909600007421875E12,742.1875
6865009481c61a91ad4a0bfa9fc36118111f0386eaf5b65af80442c7,25960.0,25960.0,792.236328125,25960.0,-50.01086956521739,-32364.0,376.27173913043475,6854.0,253.86956521739128,-21103.0,-27.500000000000004,4383.0,-133.62804878048783,902.0,164.2378048780488,-5387.0,1.907046476761619,23222.0,-34.81559220389805,1272.0,21.778110944527736,-14526.0,4234.4322344322345,2890.0,42.210465367266664,1.2804376E7,180.90694112412166,64159.0,100.0,0.0,100.0,1.79096000078E12,-1.0,1.7909600007617188E12,761.71875
